%time,field.header.seq,field.header.stamp,field.header.frame_id,field.orientation.x,field.orientation.y,field.orientation.z,field.orientation.w,field.orientation_covariance0,field.orientation_covariance1,field.orientation_covariance2,field.orientation_covariance3,field.orientation_covariance4,field.orientation_covariance5,field.orientation_covariance6,field.orientation_covariance7,field.orientation_covariance8,field.angular_velocity.x,field.angular_velocity.y,field.angular_velocity.z,field.angular_velocity_covariance0,field.angular_velocity_covariance1,field.angular_velocity_covariance2,field.angular_velocity_covariance3,field.angular_velocity_covariance4,field.angular_velocity_covariance5,field.angular_velocity_covariance6,field.angular_velocity_covariance7,field.angular_velocity_covariance8,field.linear_acceleration.x,field.linear_acceleration.y,field.linear_acceleration.z,field.linear_acceleration_covariance0,field.linear_acceleration_covariance1,field.linear_acceleration_covariance2,field.linear_acceleration_covariance3,field.linear_acceleration_covariance4,field.linear_acceleration_covariance5,field.linear_acceleration_covariance6,field.linear_acceleration_covariance7,field.linear_acceleration_covariance8
1438351930607814991,132033,1438351930607814991,fcu,0.0,0.0,0.0,0.0,-1.0,0.0,0.0,0.0,0.0,0.0,0.0,0.0,0.0,-0.0138592263684,-0.0290063973516,0.0100373132154,1.21846967915e-07,0.0,0.0,0.0,1.21846967915e-07,0.0,0.0,0.0,1.21846967915e-07,-0.0647386610508,-1.4252165556,9.45525741577,9e-08,0.0,0.0,0.0,9e-08,0.0,0.0,0.0,9e-08
1438351930617935154,132034,1438351930617935154,fcu,0.0,0.0,0.0,0.0,-1.0,0.0,0.0,0.0,0.0,0.0,0.0,0.0,0.0,-0.0141619360074,-0.0302727427334,0.0100688105449,1.21846967915e-07,0.0,0.0,0.0,1.21846967915e-07,0.0,0.0,0.0,1.21846967915e-07,-0.0615885406733,-1.43832182884,9.47177219391,9e-08,0.0,0.0,0.0,9e-08,0.0,0.0,0.0,9e-08
1438351930627967817,132035,1438351930627967817,fcu,0.0,0.0,0.0,0.0,-1.0,0.0,0.0,0.0,0.0,0.0,0.0,0.0,0.0,-0.0143604362383,-0.0324568003416,0.00880192220211,1.21846967915e-07,0.0,0.0,0.0,1.21846967915e-07,0.0,0.0,0.0,1.21846967915e-07,-0.0424540527165,-1.43478643894,9.45509910583,9e-08,0.0,0.0,0.0,9e-08,0.0,0.0,0.0,9e-08
1438351930638138781,132036,1438351930638138781,fcu,0.0,0.0,0.0,0.0,-1.0,0.0,0.0,0.0,0.0,0.0,0.0,0.0,0.0,-0.0141783589497,-0.031006205827,0.00931310560554,1.21846967915e-07,0.0,0.0,0.0,1.21846967915e-07,0.0,0.0,0.0,1.21846967915e-07,-0.0230439640582,-1.41421568394,9.43992996216,9e-08,0.0,0.0,0.0,9e-08,0.0,0.0,0.0,9e-08
1438351930648342179,132037,1438351930648342179,fcu,0.0,0.0,0.0,0.0,-1.0,0.0,0.0,0.0,0.0,0.0,0.0,0.0,0.0,-0.0141415130347,-0.0289688613266,0.00945109222084,1.21846967915e-07,0.0,0.0,0.0,1.21846967915e-07,0.0,0.0,0.0,1.21846967915e-07,-0.0444385670125,-1.41610264778,9.45655345917,9e-08,0.0,0.0,0.0,9e-08,0.0,0.0,0.0,9e-08
1438351930660172983,132038,1438351930660172983,fcu,0.0,0.0,0.0,0.0,-1.0,0.0,0.0,0.0,0.0,0.0,0.0,0.0,0.0,-0.013979983516,-0.0314135588706,0.00857630651444,1.21846967915e-07,0.0,0.0,0.0,1.21846967915e-07,0.0,0.0,0.0,1.21846967915e-07,-0.0611421614885,-1.4313699007,9.46681594849,9e-08,0.0,0.0,0.0,9e-08,0.0,0.0,0.0,9e-08
1438351930670434321,132039,1438351930670434321,fcu,0.0,0.0,0.0,0.0,-1.0,0.0,0.0,0.0,0.0,0.0,0.0,0.0,0.0,-0.0151654770598,-0.032207954675,0.00852311123163,1.21846967915e-07,0.0,0.0,0.0,1.21846967915e-07,0.0,0.0,0.0,1.21846967915e-07,-0.0343796759844,-1.4291779995,9.43625354767,9e-08,0.0,0.0,0.0,9e-08,0.0,0.0,0.0,9e-08
1438351930680491964,132040,1438351930680491964,fcu,0.0,0.0,0.0,0.0,-1.0,0.0,0.0,0.0,0.0,0.0,0.0,0.0,0.0,-0.015182249248,-0.0303934663534,0.00915178842843,1.21846967915e-07,0.0,0.0,0.0,1.21846967915e-07,0.0,0.0,0.0,1.21846967915e-07,-0.038781363517,-1.43070101738,9.43584728241,9e-08,0.0,0.0,0.0,9e-08,0.0,0.0,0.0,9e-08
1438351930692811879,132041,1438351930692811879,fcu,0.0,0.0,0.0,0.0,-1.0,0.0,0.0,0.0,0.0,0.0,0.0,0.0,0.0,-0.0143143637106,-0.0298449303955,0.00971803907305,1.21846967915e-07,0.0,0.0,0.0,1.21846967915e-07,0.0,0.0,0.0,1.21846967915e-07,-0.0456463359296,-1.43661391735,9.47888183594,9e-08,0.0,0.0,0.0,9e-08,0.0,0.0,0.0,9e-08
1438351930704560743,132042,1438351930704560743,fcu,0.0,0.0,0.0,0.0,-1.0,0.0,0.0,0.0,0.0,0.0,0.0,0.0,0.0,-0.0142984632403,-0.0300399959087,0.00919691193849,1.21846967915e-07,0.0,0.0,0.0,1.21846967915e-07,0.0,0.0,0.0,1.21846967915e-07,-0.0363065637648,-1.42640423775,9.47202396393,9e-08,0.0,0.0,0.0,9e-08,0.0,0.0,0.0,9e-08
1438351930714774892,132043,1438351930714774892,fcu,0.0,0.0,0.0,0.0,-1.0,0.0,0.0,0.0,0.0,0.0,0.0,0.0,0.0,-0.0137345055118,-0.0299860872328,0.00876419525594,1.21846967915e-07,0.0,0.0,0.0,1.21846967915e-07,0.0,0.0,0.0,1.21846967915e-07,-0.0519700050354,-1.42645823956,9.48514842987,9e-08,0.0,0.0,0.0,9e-08,0.0,0.0,0.0,9e-08
1438351930724867846,132044,1438351930724867846,fcu,0.0,0.0,0.0,0.0,-1.0,0.0,0.0,0.0,0.0,0.0,0.0,0.0,0.0,-0.0141967916861,-0.0304869282991,0.00860525295138,1.21846967915e-07,0.0,0.0,0.0,1.21846967915e-07,0.0,0.0,0.0,1.21846967915e-07,-0.054729051888,-1.44171154499,9.46900463104,9e-08,0.0,0.0,0.0,9e-08,0.0,0.0,0.0,9e-08
1438351930736848120,132045,1438351930736848120,fcu,0.0,0.0,0.0,0.0,-1.0,0.0,0.0,0.0,0.0,0.0,0.0,0.0,0.0,-0.0139922676608,-0.0310061853379,0.00794937927276,1.21846967915e-07,0.0,0.0,0.0,1.21846967915e-07,0.0,0.0,0.0,1.21846967915e-07,-0.0576577223837,-1.43249952793,9.47095584869,9e-08,0.0,0.0,0.0,9e-08,0.0,0.0,0.0,9e-08
1438351930746873313,132046,1438351930746873313,fcu,0.0,0.0,0.0,0.0,-1.0,0.0,0.0,0.0,0.0,0.0,0.0,0.0,0.0,-0.0143154114485,-0.0309377163649,0.00838567968458,1.21846967915e-07,0.0,0.0,0.0,1.21846967915e-07,0.0,0.0,0.0,1.21846967915e-07,-0.0585587397218,-1.42689836025,9.48583602905,9e-08,0.0,0.0,0.0,9e-08,0.0,0.0,0.0,9e-08
1438351930759056365,132047,1438351930759056365,fcu,0.0,0.0,0.0,0.0,-1.0,0.0,0.0,0.0,0.0,0.0,0.0,0.0,0.0,-0.0147603815421,-0.0306456647813,0.008355345577,1.21846967915e-07,0.0,0.0,0.0,1.21846967915e-07,0.0,0.0,0.0,1.21846967915e-07,-0.0470754392445,-1.42629122734,9.45305156708,9e-08,0.0,0.0,0.0,9e-08,0.0,0.0,0.0,9e-08
1438351930771021304,132048,1438351930771021304,fcu,0.0,0.0,0.0,0.0,-1.0,0.0,0.0,0.0,0.0,0.0,0.0,0.0,0.0,-0.0139129851013,-0.0300153438002,0.00867230258882,1.21846967915e-07,0.0,0.0,0.0,1.21846967915e-07,0.0,0.0,0.0,1.21846967915e-07,-0.0476452745497,-1.43423891068,9.46919536591,9e-08,0.0,0.0,0.0,9e-08,0.0,0.0,0.0,9e-08
1438351930781299090,132049,1438351930781299090,fcu,0.0,0.0,0.0,0.0,-1.0,0.0,0.0,0.0,0.0,0.0,0.0,0.0,0.0,-0.0132084582001,-0.0304424744099,0.00922611355782,1.21846967915e-07,0.0,0.0,0.0,1.21846967915e-07,0.0,0.0,0.0,1.21846967915e-07,-0.0423337109387,-1.43463122845,9.44470882416,9e-08,0.0,0.0,0.0,9e-08,0.0,0.0,0.0,9e-08
1438351930793239056,132050,1438351930793239056,fcu,0.0,0.0,0.0,0.0,-1.0,0.0,0.0,0.0,0.0,0.0,0.0,0.0,0.0,-0.0145053397864,-0.0304678659886,0.0100177824497,1.21846967915e-07,0.0,0.0,0.0,1.21846967915e-07,0.0,0.0,0.0,1.21846967915e-07,-0.0465246364474,-1.428576231,9.45724582672,9e-08,0.0,0.0,0.0,9e-08,0.0,0.0,0.0,9e-08
1438351930803349135,132051,1438351930803349135,fcu,0.0,0.0,0.0,0.0,-1.0,0.0,0.0,0.0,0.0,0.0,0.0,0.0,0.0,-0.0144481481984,-0.0302872490138,0.0092881815508,1.21846967915e-07,0.0,0.0,0.0,1.21846967915e-07,0.0,0.0,0.0,1.21846967915e-07,-0.0521981157362,-1.4383109808,9.48023891449,9e-08,0.0,0.0,0.0,9e-08,0.0,0.0,0.0,9e-08
1438351930813459033,132052,1438351930813459033,fcu,0.0,0.0,0.0,0.0,-1.0,0.0,0.0,0.0,0.0,0.0,0.0,0.0,0.0,-0.0138194523752,-0.0309957358986,0.00847470574081,1.21846967915e-07,0.0,0.0,0.0,1.21846967915e-07,0.0,0.0,0.0,1.21846967915e-07,-0.0525162927806,-1.42889642715,9.49805259705,9e-08,0.0,0.0,0.0,9e-08,0.0,0.0,0.0,9e-08
1438351930823365225,132053,1438351930823365225,fcu,0.0,0.0,0.0,0.0,-1.0,0.0,0.0,0.0,0.0,0.0,0.0,0.0,0.0,-0.0139844445512,-0.0315150544047,0.00889394525439,1.21846967915e-07,0.0,0.0,0.0,1.21846967915e-07,0.0,0.0,0.0,1.21846967915e-07,-0.0567484609783,-1.43317723274,9.47890949249,9e-08,0.0,0.0,0.0,9e-08,0.0,0.0,0.0,9e-08
1438351930833476466,132054,1438351930833476466,fcu,0.0,0.0,0.0,0.0,-1.0,0.0,0.0,0.0,0.0,0.0,0.0,0.0,0.0,-0.0146275507286,-0.0307228974998,0.00994473788887,1.21846967915e-07,0.0,0.0,0.0,1.21846967915e-07,0.0,0.0,0.0,1.21846967915e-07,-0.0682762339711,-1.43361997604,9.46007537842,9e-08,0.0,0.0,0.0,9e-08,0.0,0.0,0.0,9e-08
1438351930843598743,132055,1438351930843598743,fcu,0.0,0.0,0.0,0.0,-1.0,0.0,0.0,0.0,0.0,0.0,0.0,0.0,0.0,-0.014984565787,-0.0301868766546,0.0096153113991,1.21846967915e-07,0.0,0.0,0.0,1.21846967915e-07,0.0,0.0,0.0,1.21846967915e-07,-0.0625654459,-1.42292177677,9.48561859131,9e-08,0.0,0.0,0.0,9e-08,0.0,0.0,0.0,9e-08
1438351930855614454,132056,1438351930855614454,fcu,0.0,0.0,0.0,0.0,-1.0,0.0,0.0,0.0,0.0,0.0,0.0,0.0,0.0,-0.0138904415071,-0.0304728411138,0.00876433309168,1.21846967915e-07,0.0,0.0,0.0,1.21846967915e-07,0.0,0.0,0.0,1.21846967915e-07,-0.0530340783298,-1.42184484005,9.46687221527,9e-08,0.0,0.0,0.0,9e-08,0.0,0.0,0.0,9e-08
1438351930867771597,132057,1438351930867771597,fcu,0.0,0.0,0.0,0.0,-1.0,0.0,0.0,0.0,0.0,0.0,0.0,0.0,0.0,-0.0146821904927,-0.0302641261369,0.00862530618906,1.21846967915e-07,0.0,0.0,0.0,1.21846967915e-07,0.0,0.0,0.0,1.21846967915e-07,-0.0582805685699,-1.41877603531,9.45942497253,9e-08,0.0,0.0,0.0,9e-08,0.0,0.0,0.0,9e-08
1438351930879815458,132058,1438351930879815458,fcu,0.0,0.0,0.0,0.0,-1.0,0.0,0.0,0.0,0.0,0.0,0.0,0.0,0.0,-0.0143462037668,-0.0308948792517,0.00903642177582,1.21846967915e-07,0.0,0.0,0.0,1.21846967915e-07,0.0,0.0,0.0,1.21846967915e-07,-0.0617525018752,-1.4342212677,9.44843578339,9e-08,0.0,0.0,0.0,9e-08,0.0,0.0,0.0,9e-08
1438351930889924023,132059,1438351930889924023,fcu,0.0,0.0,0.0,0.0,-1.0,0.0,0.0,0.0,0.0,0.0,0.0,0.0,0.0,-0.0137285552919,-0.0309132821858,0.00874108914286,1.21846967915e-07,0.0,0.0,0.0,1.21846967915e-07,0.0,0.0,0.0,1.21846967915e-07,-0.0395521633327,-1.4408416748,9.46143817902,9e-08,0.0,0.0,0.0,9e-08,0.0,0.0,0.0,9e-08
1438351930899917377,132060,1438351930899917377,fcu,0.0,0.0,0.0,0.0,-1.0,0.0,0.0,0.0,0.0,0.0,0.0,0.0,0.0,-0.0136607997119,-0.0296557266265,0.00905636604875,1.21846967915e-07,0.0,0.0,0.0,1.21846967915e-07,0.0,0.0,0.0,1.21846967915e-07,-0.0268577709794,-1.43562912941,9.46817493439,9e-08,0.0,0.0,0.0,9e-08,0.0,0.0,0.0,9e-08
1438351930910156584,132061,1438351930910156584,fcu,0.0,0.0,0.0,0.0,-1.0,0.0,0.0,0.0,0.0,0.0,0.0,0.0,0.0,-0.0144632551819,-0.0296265650541,0.00951712857932,1.21846967915e-07,0.0,0.0,0.0,1.21846967915e-07,0.0,0.0,0.0,1.21846967915e-07,-0.0471186600626,-1.43029308319,9.47168445587,9e-08,0.0,0.0,0.0,9e-08,0.0,0.0,0.0,9e-08
1438351930922157967,132062,1438351930922157967,fcu,0.0,0.0,0.0,0.0,-1.0,0.0,0.0,0.0,0.0,0.0,0.0,0.0,0.0,-0.0156140476465,-0.030827684328,0.00931770913303,1.21846967915e-07,0.0,0.0,0.0,1.21846967915e-07,0.0,0.0,0.0,1.21846967915e-07,-0.0597687251866,-1.43784713745,9.4836101532,9e-08,0.0,0.0,0.0,9e-08,0.0,0.0,0.0,9e-08
1438351930932256133,132063,1438351930932256133,fcu,0.0,0.0,0.0,0.0,-1.0,0.0,0.0,0.0,0.0,0.0,0.0,0.0,0.0,-0.0141853503883,-0.0313172414899,0.00922549702227,1.21846967915e-07,0.0,0.0,0.0,1.21846967915e-07,0.0,0.0,0.0,1.21846967915e-07,-0.0456072390079,-1.42250466347,9.45189857483,9e-08,0.0,0.0,0.0,9e-08,0.0,0.0,0.0,9e-08
1438351930942244315,132064,1438351930942244315,fcu,0.0,0.0,0.0,0.0,-1.0,0.0,0.0,0.0,0.0,0.0,0.0,0.0,0.0,-0.0130967525765,-0.0317680314183,0.00969463586807,1.21846967915e-07,0.0,0.0,0.0,1.21846967915e-07,0.0,0.0,0.0,1.21846967915e-07,-0.0490588136017,-1.42383182049,9.46092987061,9e-08,0.0,0.0,0.0,9e-08,0.0,0.0,0.0,9e-08
1438351930952322805,132065,1438351930952322805,fcu,0.0,0.0,0.0,0.0,-1.0,0.0,0.0,0.0,0.0,0.0,0.0,0.0,0.0,-0.0138470074162,-0.0302594304085,0.00934354122728,1.21846967915e-07,0.0,0.0,0.0,1.21846967915e-07,0.0,0.0,0.0,1.21846967915e-07,-0.06765653193,-1.41196537018,9.46518802643,9e-08,0.0,0.0,0.0,9e-08,0.0,0.0,0.0,9e-08
1438351930964453226,132066,1438351930964453226,fcu,0.0,0.0,0.0,0.0,-1.0,0.0,0.0,0.0,0.0,0.0,0.0,0.0,0.0,-0.0141311353073,-0.0306625049561,0.00961458776146,1.21846967915e-07,0.0,0.0,0.0,1.21846967915e-07,0.0,0.0,0.0,1.21846967915e-07,-0.0459495559335,-1.44058072567,9.45559597015,9e-08,0.0,0.0,0.0,9e-08,0.0,0.0,0.0,9e-08
1438351930976505166,132067,1438351930976505166,fcu,0.0,0.0,0.0,0.0,-1.0,0.0,0.0,0.0,0.0,0.0,0.0,0.0,0.0,-0.0139274308458,-0.0296190455556,0.00874107610434,1.21846967915e-07,0.0,0.0,0.0,1.21846967915e-07,0.0,0.0,0.0,1.21846967915e-07,-0.0384021699429,-1.44240570068,9.47683334351,9e-08,0.0,0.0,0.0,9e-08,0.0,0.0,0.0,9e-08
1438351930986484102,132068,1438351930986484102,fcu,0.0,0.0,0.0,0.0,-1.0,0.0,0.0,0.0,0.0,0.0,0.0,0.0,0.0,-0.0144362319261,-0.0288757812232,0.00842070207,1.21846967915e-07,0.0,0.0,0.0,1.21846967915e-07,0.0,0.0,0.0,1.21846967915e-07,-0.0311173070222,-1.42652571201,9.47056293488,9e-08,0.0,0.0,0.0,9e-08,0.0,0.0,0.0,9e-08
1438351930996515062,132069,1438351930996515062,fcu,0.0,0.0,0.0,0.0,-1.0,0.0,0.0,0.0,0.0,0.0,0.0,0.0,0.0,-0.0153057230636,-0.0310866720974,0.00892255734652,1.21846967915e-07,0.0,0.0,0.0,1.21846967915e-07,0.0,0.0,0.0,1.21846967915e-07,-0.0449679531157,-1.43857991695,9.45071792603,9e-08,0.0,0.0,0.0,9e-08,0.0,0.0,0.0,9e-08
1438351931006751969,132070,1438351931006751969,fcu,0.0,0.0,0.0,0.0,-1.0,0.0,0.0,0.0,0.0,0.0,0.0,0.0,0.0,-0.0145128024742,-0.0313338041306,0.00878833793104,1.21846967915e-07,0.0,0.0,0.0,1.21846967915e-07,0.0,0.0,0.0,1.21846967915e-07,-0.0560520142317,-1.42535769939,9.4403886795,9e-08,0.0,0.0,0.0,9e-08,0.0,0.0,0.0,9e-08
1438351931016690451,132071,1438351931016690451,fcu,0.0,0.0,0.0,0.0,-1.0,0.0,0.0,0.0,0.0,0.0,0.0,0.0,0.0,-0.0143180340528,-0.0307050980628,0.00981403701007,1.21846967915e-07,0.0,0.0,0.0,1.21846967915e-07,0.0,0.0,0.0,1.21846967915e-07,-0.0680532678962,-1.4179469347,9.44023132324,9e-08,0.0,0.0,0.0,9e-08,0.0,0.0,0.0,9e-08
1438351931026840426,132072,1438351931026840426,fcu,0.0,0.0,0.0,0.0,-1.0,0.0,0.0,0.0,0.0,0.0,0.0,0.0,0.0,-0.0138112343848,-0.030368052423,0.00937331002206,1.21846967915e-07,0.0,0.0,0.0,1.21846967915e-07,0.0,0.0,0.0,1.21846967915e-07,-0.0558460466564,-1.42453503609,9.46131324768,9e-08,0.0,0.0,0.0,9e-08,0.0,0.0,0.0,9e-08
1438351931037003763,132073,1438351931037003763,fcu,0.0,0.0,0.0,0.0,-1.0,0.0,0.0,0.0,0.0,0.0,0.0,0.0,0.0,-0.0138130504638,-0.0314611084759,0.00806482788175,1.21846967915e-07,0.0,0.0,0.0,1.21846967915e-07,0.0,0.0,0.0,1.21846967915e-07,-0.0409564934671,-1.41653180122,9.49845409393,9e-08,0.0,0.0,0.0,9e-08,0.0,0.0,0.0,9e-08
1438351931047073538,132074,1438351931047073538,fcu,0.0,0.0,0.0,0.0,-1.0,0.0,0.0,0.0,0.0,0.0,0.0,0.0,0.0,-0.0136002330109,-0.0312036257237,0.00803401973099,1.21846967915e-07,0.0,0.0,0.0,1.21846967915e-07,0.0,0.0,0.0,1.21846967915e-07,-0.058676764369,-1.41459870338,9.49279975891,9e-08,0.0,0.0,0.0,9e-08,0.0,0.0,0.0,9e-08
1438351931059048219,132075,1438351931059048219,fcu,0.0,0.0,0.0,0.0,-1.0,0.0,0.0,0.0,0.0,0.0,0.0,0.0,0.0,-0.0138552309945,-0.0302845072001,0.00777180213481,1.21846967915e-07,0.0,0.0,0.0,1.21846967915e-07,0.0,0.0,0.0,1.21846967915e-07,-0.0355352163315,-1.43254768848,9.47182369232,9e-08,0.0,0.0,0.0,9e-08,0.0,0.0,0.0,9e-08
1438351931069265425,132076,1438351931069265425,fcu,0.0,0.0,0.0,0.0,-1.0,0.0,0.0,0.0,0.0,0.0,0.0,0.0,0.0,-0.0143213449046,-0.0305534154177,0.00893740635365,1.21846967915e-07,0.0,0.0,0.0,1.21846967915e-07,0.0,0.0,0.0,1.21846967915e-07,-0.0334120243788,-1.43622350693,9.46354579926,9e-08,0.0,0.0,0.0,9e-08,0.0,0.0,0.0,9e-08
1438351931081232830,132077,1438351931081232830,fcu,0.0,0.0,0.0,0.0,-1.0,0.0,0.0,0.0,0.0,0.0,0.0,0.0,0.0,-0.0143803153187,-0.0313609912992,0.00850182306021,1.21846967915e-07,0.0,0.0,0.0,1.21846967915e-07,0.0,0.0,0.0,1.21846967915e-07,-0.0531208440661,-1.41733705997,9.46278381348,9e-08,0.0,0.0,0.0,9e-08,0.0,0.0,0.0,9e-08
1438351931091625907,132078,1438351931091625907,fcu,0.0,0.0,0.0,0.0,-1.0,0.0,0.0,0.0,0.0,0.0,0.0,0.0,0.0,-0.0140167633072,-0.0309868529439,0.00964726600796,1.21846967915e-07,0.0,0.0,0.0,1.21846967915e-07,0.0,0.0,0.0,1.21846967915e-07,-0.0522256940603,-1.40467083454,9.47105884552,9e-08,0.0,0.0,0.0,9e-08,0.0,0.0,0.0,9e-08
1438351931103378395,132079,1438351931103378395,fcu,0.0,0.0,0.0,0.0,-1.0,0.0,0.0,0.0,0.0,0.0,0.0,0.0,0.0,-0.0136821027845,-0.030097361654,0.00935688428581,1.21846967915e-07,0.0,0.0,0.0,1.21846967915e-07,0.0,0.0,0.0,1.21846967915e-07,-0.0437366552651,-1.43073797226,9.473985672,9e-08,0.0,0.0,0.0,9e-08,0.0,0.0,0.0,9e-08
1438351931113541631,132080,1438351931113541631,fcu,0.0,0.0,0.0,0.0,-1.0,0.0,0.0,0.0,0.0,0.0,0.0,0.0,0.0,-0.0137574942783,-0.0311087127775,0.00901764631271,1.21846967915e-07,0.0,0.0,0.0,1.21846967915e-07,0.0,0.0,0.0,1.21846967915e-07,-0.04697201401,-1.42012631893,9.48938083649,9e-08,0.0,0.0,0.0,9e-08,0.0,0.0,0.0,9e-08
1438351931125458128,132081,1438351931125458128,fcu,0.0,0.0,0.0,0.0,-1.0,0.0,0.0,0.0,0.0,0.0,0.0,0.0,0.0,-0.0136859109625,-0.031203918159,0.00882113166153,1.21846967915e-07,0.0,0.0,0.0,1.21846967915e-07,0.0,0.0,0.0,1.21846967915e-07,-0.0553168021142,-1.42434000969,9.47645378113,9e-08,0.0,0.0,0.0,9e-08,0.0,0.0,0.0,9e-08
1438351931135871157,132082,1438351931135871157,fcu,0.0,0.0,0.0,0.0,-1.0,0.0,0.0,0.0,0.0,0.0,0.0,0.0,0.0,-0.0142246428877,-0.0306812506169,0.00925156939775,1.21846967915e-07,0.0,0.0,0.0,1.21846967915e-07,0.0,0.0,0.0,1.21846967915e-07,-0.053433496505,-1.43160617352,9.46528720856,9e-08,0.0,0.0,0.0,9e-08,0.0,0.0,0.0,9e-08
1438351931147587942,132083,1438351931147587942,fcu,0.0,0.0,0.0,0.0,-1.0,0.0,0.0,0.0,0.0,0.0,0.0,0.0,0.0,-0.0142831718549,-0.0308043770492,0.00981182605028,1.21846967915e-07,0.0,0.0,0.0,1.21846967915e-07,0.0,0.0,0.0,1.21846967915e-07,-0.0492220930755,-1.43352484703,9.45202064514,9e-08,0.0,0.0,0.0,9e-08,0.0,0.0,0.0,9e-08
1438351931157947833,132084,1438351931157947833,fcu,0.0,0.0,0.0,0.0,-1.0,0.0,0.0,0.0,0.0,0.0,0.0,0.0,0.0,-0.0146536268294,-0.0308707449585,0.00978863053024,1.21846967915e-07,0.0,0.0,0.0,1.21846967915e-07,0.0,0.0,0.0,1.21846967915e-07,-0.0347825735807,-1.4324657917,9.49318313599,9e-08,0.0,0.0,0.0,9e-08,0.0,0.0,0.0,9e-08
1438351931169853149,132085,1438351931169853149,fcu,0.0,0.0,0.0,0.0,-1.0,0.0,0.0,0.0,0.0,0.0,0.0,0.0,0.0,-0.0134036662057,-0.0305939111859,0.00956761743873,1.21846967915e-07,0.0,0.0,0.0,1.21846967915e-07,0.0,0.0,0.0,1.21846967915e-07,-0.0538943819702,-1.42994010448,9.48151779175,9e-08,0.0,0.0,0.0,9e-08,0.0,0.0,0.0,9e-08
1438351931179948914,132086,1438351931179948914,fcu,0.0,0.0,0.0,0.0,-1.0,0.0,0.0,0.0,0.0,0.0,0.0,0.0,0.0,-0.0137332985178,-0.030640270561,0.00847096089274,1.21846967915e-07,0.0,0.0,0.0,1.21846967915e-07,0.0,0.0,0.0,1.21846967915e-07,-0.0582415983081,-1.42938995361,9.4801235199,9e-08,0.0,0.0,0.0,9e-08,0.0,0.0,0.0,9e-08
1438351931189952742,132087,1438351931189952742,fcu,0.0,0.0,0.0,0.0,-1.0,0.0,0.0,0.0,0.0,0.0,0.0,0.0,0.0,-0.014121118933,-0.0301470682025,0.00881645269692,1.21846967915e-07,0.0,0.0,0.0,1.21846967915e-07,0.0,0.0,0.0,1.21846967915e-07,-0.0339547544718,-1.43472516537,9.46474075317,9e-08,0.0,0.0,0.0,9e-08,0.0,0.0,0.0,9e-08
1438351931200022107,132088,1438351931200022107,fcu,0.0,0.0,0.0,0.0,-1.0,0.0,0.0,0.0,0.0,0.0,0.0,0.0,0.0,-0.0129565559328,-0.0306458268315,0.00833188835531,1.21846967915e-07,0.0,0.0,0.0,1.21846967915e-07,0.0,0.0,0.0,1.21846967915e-07,-0.028753971681,-1.43021416664,9.45347595215,9e-08,0.0,0.0,0.0,9e-08,0.0,0.0,0.0,9e-08
1438351931210029187,132089,1438351931210029187,fcu,0.0,0.0,0.0,0.0,-1.0,0.0,0.0,0.0,0.0,0.0,0.0,0.0,0.0,-0.0132058532909,-0.0307231675833,0.00856606848538,1.21846967915e-07,0.0,0.0,0.0,1.21846967915e-07,0.0,0.0,0.0,1.21846967915e-07,-0.060015372932,-1.40930318832,9.45744609833,9e-08,0.0,0.0,0.0,9e-08,0.0,0.0,0.0,9e-08
1438351931220239878,132090,1438351931220239878,fcu,0.0,0.0,0.0,0.0,-1.0,0.0,0.0,0.0,0.0,0.0,0.0,0.0,0.0,-0.0140037406236,-0.0304317325354,0.00875431858003,1.21846967915e-07,0.0,0.0,0.0,1.21846967915e-07,0.0,0.0,0.0,1.21846967915e-07,-0.06633400172,-1.4096660614,9.4602355957,9e-08,0.0,0.0,0.0,9e-08,0.0,0.0,0.0,9e-08
1438351931230268087,132091,1438351931230268087,fcu,0.0,0.0,0.0,0.0,-1.0,0.0,0.0,0.0,0.0,0.0,0.0,0.0,0.0,-0.0141520667821,-0.0300546772778,0.0104323774576,1.21846967915e-07,0.0,0.0,0.0,1.21846967915e-07,0.0,0.0,0.0,1.21846967915e-07,-0.0607048012316,-1.43092346191,9.48385047913,9e-08,0.0,0.0,0.0,9e-08,0.0,0.0,0.0,9e-08
1438351931240322703,132092,1438351931240322703,fcu,0.0,0.0,0.0,0.0,-1.0,0.0,0.0,0.0,0.0,0.0,0.0,0.0,0.0,-0.0140240024775,-0.0305491853505,0.0103874979541,1.21846967915e-07,0.0,0.0,0.0,1.21846967915e-07,0.0,0.0,0.0,1.21846967915e-07,-0.045046530664,-1.43703591824,9.48700141907,9e-08,0.0,0.0,0.0,9e-08,0.0,0.0,0.0,9e-08
1438351931252406215,132093,1438351931252406215,fcu,0.0,0.0,0.0,0.0,-1.0,0.0,0.0,0.0,0.0,0.0,0.0,0.0,0.0,-0.0139304893091,-0.0304166916758,0.00901289284229,1.21846967915e-07,0.0,0.0,0.0,1.21846967915e-07,0.0,0.0,0.0,1.21846967915e-07,-0.0452111661434,-1.44142866135,9.46800899506,9e-08,0.0,0.0,0.0,9e-08,0.0,0.0,0.0,9e-08
1438351931262401288,132094,1438351931262401288,fcu,0.0,0.0,0.0,0.0,-1.0,0.0,0.0,0.0,0.0,0.0,0.0,0.0,0.0,-0.0136620840058,-0.0305022262037,0.00884107686579,1.21846967915e-07,0.0,0.0,0.0,1.21846967915e-07,0.0,0.0,0.0,1.21846967915e-07,-0.0626543685794,-1.42066943645,9.46461391449,9e-08,0.0,0.0,0.0,9e-08,0.0,0.0,0.0,9e-08
1438351931272514193,132095,1438351931272514193,fcu,0.0,0.0,0.0,0.0,-1.0,0.0,0.0,0.0,0.0,0.0,0.0,0.0,0.0,-0.0137167358771,-0.0305681955069,0.00855340994895,1.21846967915e-07,0.0,0.0,0.0,1.21846967915e-07,0.0,0.0,0.0,1.21846967915e-07,-0.0587756931782,-1.40575194359,9.4741230011,9e-08,0.0,0.0,0.0,9e-08,0.0,0.0,0.0,9e-08
1438351931282587592,132096,1438351931282587592,fcu,0.0,0.0,0.0,0.0,-1.0,0.0,0.0,0.0,0.0,0.0,0.0,0.0,0.0,-0.0141884684563,-0.0308394581079,0.00891709234565,1.21846967915e-07,0.0,0.0,0.0,1.21846967915e-07,0.0,0.0,0.0,1.21846967915e-07,-0.058247435838,-1.42302572727,9.47656059265,9e-08,0.0,0.0,0.0,9e-08,0.0,0.0,0.0,9e-08
1438351931292622978,132097,1438351931292622978,fcu,0.0,0.0,0.0,0.0,-1.0,0.0,0.0,0.0,0.0,0.0,0.0,0.0,0.0,-0.013806335628,-0.0308641977608,0.00893112737685,1.21846967915e-07,0.0,0.0,0.0,1.21846967915e-07,0.0,0.0,0.0,1.21846967915e-07,-0.0499440766871,-1.42566287518,9.48711776733,9e-08,0.0,0.0,0.0,9e-08,0.0,0.0,0.0,9e-08
1438351931302769149,132098,1438351931302769149,fcu,0.0,0.0,0.0,0.0,-1.0,0.0,0.0,0.0,0.0,0.0,0.0,0.0,0.0,-0.0144407059997,-0.0305343400687,0.00814145896584,1.21846967915e-07,0.0,0.0,0.0,1.21846967915e-07,0.0,0.0,0.0,1.21846967915e-07,-0.0524117983878,-1.44398200512,9.47782897949,9e-08,0.0,0.0,0.0,9e-08,0.0,0.0,0.0,9e-08
1438351931313008181,132099,1438351931313008181,fcu,0.0,0.0,0.0,0.0,-1.0,0.0,0.0,0.0,0.0,0.0,0.0,0.0,0.0,-0.0145964790136,-0.0306207370013,0.00865678489208,1.21846967915e-07,0.0,0.0,0.0,1.21846967915e-07,0.0,0.0,0.0,1.21846967915e-07,-0.0545173510909,-1.44525873661,9.47391033173,9e-08,0.0,0.0,0.0,9e-08,0.0,0.0,0.0,9e-08
1438351931324962921,132100,1438351931324962921,fcu,0.0,0.0,0.0,0.0,-1.0,0.0,0.0,0.0,0.0,0.0,0.0,0.0,0.0,-0.0135485799983,-0.0309988986701,0.00839050579816,1.21846967915e-07,0.0,0.0,0.0,1.21846967915e-07,0.0,0.0,0.0,1.21846967915e-07,-0.0433827191591,-1.43137180805,9.47972869873,9e-08,0.0,0.0,0.0,9e-08,0.0,0.0,0.0,9e-08
1438351931335033373,132101,1438351931335033373,fcu,0.0,0.0,0.0,0.0,-1.0,0.0,0.0,0.0,0.0,0.0,0.0,0.0,0.0,-0.0140468813479,-0.0304061044008,0.00905381236225,1.21846967915e-07,0.0,0.0,0.0,1.21846967915e-07,0.0,0.0,0.0,1.21846967915e-07,-0.0391705557704,-1.4224537611,9.45219898224,9e-08,0.0,0.0,0.0,9e-08,0.0,0.0,0.0,9e-08
1438351931346926386,132102,1438351931346926386,fcu,0.0,0.0,0.0,0.0,-1.0,0.0,0.0,0.0,0.0,0.0,0.0,0.0,0.0,-0.0143109289929,-0.0300081986934,0.00996894109994,1.21846967915e-07,0.0,0.0,0.0,1.21846967915e-07,0.0,0.0,0.0,1.21846967915e-07,-0.0547912865877,-1.43314468861,9.4630317688,9e-08,0.0,0.0,0.0,9e-08,0.0,0.0,0.0,9e-08
1438351931357277311,132103,1438351931357277311,fcu,0.0,0.0,0.0,0.0,-1.0,0.0,0.0,0.0,0.0,0.0,0.0,0.0,0.0,-0.0138608580455,-0.0309211369604,0.00840045697987,1.21846967915e-07,0.0,0.0,0.0,1.21846967915e-07,0.0,0.0,0.0,1.21846967915e-07,-0.063318528235,-1.43485844135,9.45763587952,9e-08,0.0,0.0,0.0,9e-08,0.0,0.0,0.0,9e-08
1438351931369236060,132104,1438351931369236060,fcu,0.0,0.0,0.0,0.0,-1.0,0.0,0.0,0.0,0.0,0.0,0.0,0.0,0.0,-0.0136601570994,-0.0309916753322,0.0077709723264,1.21846967915e-07,0.0,0.0,0.0,1.21846967915e-07,0.0,0.0,0.0,1.21846967915e-07,-0.0472775772214,-1.4324375391,9.45149230957,9e-08,0.0,0.0,0.0,9e-08,0.0,0.0,0.0,9e-08
1438351931379351957,132105,1438351931379351957,fcu,0.0,0.0,0.0,0.0,-1.0,0.0,0.0,0.0,0.0,0.0,0.0,0.0,0.0,-0.0136606227607,-0.0303278192878,0.00872395560145,1.21846967915e-07,0.0,0.0,0.0,1.21846967915e-07,0.0,0.0,0.0,1.21846967915e-07,-0.0563066080213,-1.43832099438,9.47165966034,9e-08,0.0,0.0,0.0,9e-08,0.0,0.0,0.0,9e-08
1438351931391248929,132106,1438351931391248929,fcu,0.0,0.0,0.0,0.0,-1.0,0.0,0.0,0.0,0.0,0.0,0.0,0.0,0.0,-0.0139139322564,-0.0295201800764,0.00902800168842,1.21846967915e-07,0.0,0.0,0.0,1.21846967915e-07,0.0,0.0,0.0,1.21846967915e-07,-0.0555473491549,-1.43075919151,9.48567676544,9e-08,0.0,0.0,0.0,9e-08,0.0,0.0,0.0,9e-08
1438351931401455465,132107,1438351931401455465,fcu,0.0,0.0,0.0,0.0,-1.0,0.0,0.0,0.0,0.0,0.0,0.0,0.0,0.0,-0.0137590263039,-0.0302290022373,0.00871265400201,1.21846967915e-07,0.0,0.0,0.0,1.21846967915e-07,0.0,0.0,0.0,1.21846967915e-07,-0.0501300096512,-1.43567466736,9.46845245361,9e-08,0.0,0.0,0.0,9e-08,0.0,0.0,0.0,9e-08
1438351931411508878,132108,1438351931411508878,fcu,0.0,0.0,0.0,0.0,-1.0,0.0,0.0,0.0,0.0,0.0,0.0,0.0,0.0,-0.0142428856343,-0.0308917593211,0.00894685275853,1.21846967915e-07,0.0,0.0,0.0,1.21846967915e-07,0.0,0.0,0.0,1.21846967915e-07,-0.0396342985332,-1.43768048286,9.46020126343,9e-08,0.0,0.0,0.0,9e-08,0.0,0.0,0.0,9e-08
1438351931423690808,132109,1438351931423690808,fcu,0.0,0.0,0.0,0.0,-1.0,0.0,0.0,0.0,0.0,0.0,0.0,0.0,0.0,-0.0137432673946,-0.0307673383504,0.00862816162407,1.21846967915e-07,0.0,0.0,0.0,1.21846967915e-07,0.0,0.0,0.0,1.21846967915e-07,-0.0498425103724,-1.43078446388,9.50769710541,9e-08,0.0,0.0,0.0,9e-08,0.0,0.0,0.0,9e-08
1438351931435637219,132110,1438351931435637219,fcu,0.0,0.0,0.0,0.0,-1.0,0.0,0.0,0.0,0.0,0.0,0.0,0.0,0.0,-0.014003216289,-0.0308384094387,0.00857979431748,1.21846967915e-07,0.0,0.0,0.0,1.21846967915e-07,0.0,0.0,0.0,1.21846967915e-07,-0.036442540586,-1.43844628334,9.47340965271,9e-08,0.0,0.0,0.0,9e-08,0.0,0.0,0.0,9e-08
1438351931445813826,132111,1438351931445813826,fcu,0.0,0.0,0.0,0.0,-1.0,0.0,0.0,0.0,0.0,0.0,0.0,0.0,0.0,-0.0143402135,-0.0307388678193,0.00916792079806,1.21846967915e-07,0.0,0.0,0.0,1.21846967915e-07,0.0,0.0,0.0,1.21846967915e-07,-0.0588267967105,-1.43209242821,9.46034049988,9e-08,0.0,0.0,0.0,9e-08,0.0,0.0,0.0,9e-08
1438351931457772050,132112,1438351931457772050,fcu,0.0,0.0,0.0,0.0,-1.0,0.0,0.0,0.0,0.0,0.0,0.0,0.0,0.0,-0.013903866522,-0.0309844836593,0.00867500249296,1.21846967915e-07,0.0,0.0,0.0,1.21846967915e-07,0.0,0.0,0.0,1.21846967915e-07,-0.0566415265203,-1.43941354752,9.46325111389,9e-08,0.0,0.0,0.0,9e-08,0.0,0.0,0.0,9e-08
1438351931467925674,132113,1438351931467925674,fcu,0.0,0.0,0.0,0.0,-1.0,0.0,0.0,0.0,0.0,0.0,0.0,0.0,0.0,-0.0143698491156,-0.0304786618799,0.0092454450205,1.21846967915e-07,0.0,0.0,0.0,1.21846967915e-07,0.0,0.0,0.0,1.21846967915e-07,-0.0524160116911,-1.44211888313,9.46143436432,9e-08,0.0,0.0,0.0,9e-08,0.0,0.0,0.0,9e-08
1438351931478027854,132114,1438351931478027854,fcu,0.0,0.0,0.0,0.0,-1.0,0.0,0.0,0.0,0.0,0.0,0.0,0.0,0.0,-0.0137236267328,-0.0300871133804,0.00919214356691,1.21846967915e-07,0.0,0.0,0.0,1.21846967915e-07,0.0,0.0,0.0,1.21846967915e-07,-0.0317244082689,-1.43842589855,9.46710586548,9e-08,0.0,0.0,0.0,9e-08,0.0,0.0,0.0,9e-08
1438351931490288741,132115,1438351931490288741,fcu,0.0,0.0,0.0,0.0,-1.0,0.0,0.0,0.0,0.0,0.0,0.0,0.0,0.0,-0.0143928630278,-0.030681502074,0.00897852983326,1.21846967915e-07,0.0,0.0,0.0,1.21846967915e-07,0.0,0.0,0.0,1.21846967915e-07,-0.045043990016,-1.43544960022,9.45998668671,9e-08,0.0,0.0,0.0,9e-08,0.0,0.0,0.0,9e-08
1438351931502234271,132116,1438351931502234271,fcu,0.0,0.0,0.0,0.0,-1.0,0.0,0.0,0.0,0.0,0.0,0.0,0.0,0.0,-0.0140172820538,-0.0299469474703,0.00954646058381,1.21846967915e-07,0.0,0.0,0.0,1.21846967915e-07,0.0,0.0,0.0,1.21846967915e-07,-0.0554054453969,-1.41661691666,9.46023273468,9e-08,0.0,0.0,0.0,9e-08,0.0,0.0,0.0,9e-08
1438351931512282451,132117,1438351931512282451,fcu,0.0,0.0,0.0,0.0,-1.0,0.0,0.0,0.0,0.0,0.0,0.0,0.0,0.0,-0.013413448818,-0.0300225503743,0.00854779500514,1.21846967915e-07,0.0,0.0,0.0,1.21846967915e-07,0.0,0.0,0.0,1.21846967915e-07,-0.0438395552337,-1.41849207878,9.45646476746,9e-08,0.0,0.0,0.0,9e-08,0.0,0.0,0.0,9e-08
1438351931524261167,132118,1438351931524261167,fcu,0.0,0.0,0.0,0.0,-1.0,0.0,0.0,0.0,0.0,0.0,0.0,0.0,0.0,-0.0139568308368,-0.0303175076842,0.00826311670244,1.21846967915e-07,0.0,0.0,0.0,1.21846967915e-07,0.0,0.0,0.0,1.21846967915e-07,-0.0500499866903,-1.44608688354,9.47343540192,9e-08,0.0,0.0,0.0,9e-08,0.0,0.0,0.0,9e-08
1438351931534340233,132119,1438351931534340233,fcu,0.0,0.0,0.0,0.0,-1.0,0.0,0.0,0.0,0.0,0.0,0.0,0.0,0.0,-0.0141615169123,-0.0314390361309,0.00830300431699,1.21846967915e-07,0.0,0.0,0.0,1.21846967915e-07,0.0,0.0,0.0,1.21846967915e-07,-0.0723374709487,-1.44863188267,9.48239612579,9e-08,0.0,0.0,0.0,9e-08,0.0,0.0,0.0,9e-08
1438351931544428406,132120,1438351931544428406,fcu,0.0,0.0,0.0,0.0,-1.0,0.0,0.0,0.0,0.0,0.0,0.0,0.0,0.0,-0.0140468720347,-0.0310505758971,0.00907533988357,1.21846967915e-07,0.0,0.0,0.0,1.21846967915e-07,0.0,0.0,0.0,1.21846967915e-07,-0.0747800320387,-1.4321295023,9.4626121521,9e-08,0.0,0.0,0.0,9e-08,0.0,0.0,0.0,9e-08
1438351931554385712,132121,1438351931554385712,fcu,0.0,0.0,0.0,0.0,-1.0,0.0,0.0,0.0,0.0,0.0,0.0,0.0,0.0,-0.0148399993777,-0.0297898761928,0.0088946102187,1.21846967915e-07,0.0,0.0,0.0,1.21846967915e-07,0.0,0.0,0.0,1.21846967915e-07,-0.0456015132368,-1.42939293385,9.4501581192,9e-08,0.0,0.0,0.0,9e-08,0.0,0.0,0.0,9e-08
1438351931564471865,132122,1438351931564471865,fcu,0.0,0.0,0.0,0.0,-1.0,0.0,0.0,0.0,0.0,0.0,0.0,0.0,0.0,-0.0145280957222,-0.0304015632719,0.00879366695881,1.21846967915e-07,0.0,0.0,0.0,1.21846967915e-07,0.0,0.0,0.0,1.21846967915e-07,-0.0331552177668,-1.44295144081,9.44779777527,9e-08,0.0,0.0,0.0,9e-08,0.0,0.0,0.0,9e-08
1438351931574741066,132123,1438351931574741066,fcu,0.0,0.0,0.0,0.0,-1.0,0.0,0.0,0.0,0.0,0.0,0.0,0.0,0.0,-0.0141379842535,-0.0317641235888,0.00880884286016,1.21846967915e-07,0.0,0.0,0.0,1.21846967915e-07,0.0,0.0,0.0,1.21846967915e-07,-0.0529212206602,-1.45431017876,9.4655752182,9e-08,0.0,0.0,0.0,9e-08,0.0,0.0,0.0,9e-08
1438351931586759659,132124,1438351931586759659,fcu,0.0,0.0,0.0,0.0,-1.0,0.0,0.0,0.0,0.0,0.0,0.0,0.0,0.0,-0.0136557891965,-0.0307604782283,0.00979891978204,1.21846967915e-07,0.0,0.0,0.0,1.21846967915e-07,0.0,0.0,0.0,1.21846967915e-07,-0.055608138442,-1.43337965012,9.45924282074,9e-08,0.0,0.0,0.0,9e-08,0.0,0.0,0.0,9e-08
1438351931598799887,132125,1438351931598799887,fcu,0.0,0.0,0.0,0.0,-1.0,0.0,0.0,0.0,0.0,0.0,0.0,0.0,0.0,-0.0146224331111,-0.030544238165,0.0094171911478,1.21846967915e-07,0.0,0.0,0.0,1.21846967915e-07,0.0,0.0,0.0,1.21846967915e-07,-0.0446303375065,-1.4261610508,9.44400978088,9e-08,0.0,0.0,0.0,9e-08,0.0,0.0,0.0,9e-08
1438351931610855259,132126,1438351931610855259,fcu,0.0,0.0,0.0,0.0,-1.0,0.0,0.0,0.0,0.0,0.0,0.0,0.0,0.0,-0.01428585127,-0.0298533011228,0.00980282761157,1.21846967915e-07,0.0,0.0,0.0,1.21846967915e-07,0.0,0.0,0.0,1.21846967915e-07,-0.0546667687595,-1.44921398163,9.4678850174,9e-08,0.0,0.0,0.0,9e-08,0.0,0.0,0.0,9e-08
1438351931620939899,132127,1438351931620939899,fcu,0.0,0.0,0.0,0.0,-1.0,0.0,0.0,0.0,0.0,0.0,0.0,0.0,0.0,-0.0142178684473,-0.0300777554512,0.00895670987666,1.21846967915e-07,0.0,0.0,0.0,1.21846967915e-07,0.0,0.0,0.0,1.21846967915e-07,-0.0561816543341,-1.43567240238,9.47030830383,9e-08,0.0,0.0,0.0,9e-08,0.0,0.0,0.0,9e-08
1438351931630991322,132128,1438351931630991322,fcu,0.0,0.0,0.0,0.0,-1.0,0.0,0.0,0.0,0.0,0.0,0.0,0.0,0.0,-0.0145420450717,-0.0308131035417,0.0089813079685,1.21846967915e-07,0.0,0.0,0.0,1.21846967915e-07,0.0,0.0,0.0,1.21846967915e-07,-0.0270739905536,-1.43270170689,9.46093940735,9e-08,0.0,0.0,0.0,9e-08,0.0,0.0,0.0,9e-08
1438351931641239635,132129,1438351931641239635,fcu,0.0,0.0,0.0,0.0,-1.0,0.0,0.0,0.0,0.0,0.0,0.0,0.0,0.0,-0.0141239585355,-0.0308152884245,0.00887776073068,1.21846967915e-07,0.0,0.0,0.0,1.21846967915e-07,0.0,0.0,0.0,1.21846967915e-07,-0.0393606238067,-1.42282533646,9.45834827423,9e-08,0.0,0.0,0.0,9e-08,0.0,0.0,0.0,9e-08
1438351931653230248,132130,1438351931653230248,fcu,0.0,0.0,0.0,0.0,-1.0,0.0,0.0,0.0,0.0,0.0,0.0,0.0,0.0,-0.0138266216964,-0.0311440452933,0.00903713703156,1.21846967915e-07,0.0,0.0,0.0,1.21846967915e-07,0.0,0.0,0.0,1.21846967915e-07,-0.0541340187192,-1.43340599537,9.50223350525,9e-08,0.0,0.0,0.0,9e-08,0.0,0.0,0.0,9e-08
1438351931663238045,132131,1438351931663238045,fcu,0.0,0.0,0.0,0.0,-1.0,0.0,0.0,0.0,0.0,0.0,0.0,0.0,0.0,-0.0140208750963,-0.0314786806703,0.0095043014735,1.21846967915e-07,0.0,0.0,0.0,1.21846967915e-07,0.0,0.0,0.0,1.21846967915e-07,-0.0498292669654,-1.43145024776,9.48055362701,9e-08,0.0,0.0,0.0,9e-08,0.0,0.0,0.0,9e-08
1438351931673463510,132132,1438351931673463510,fcu,0.0,0.0,0.0,0.0,-1.0,0.0,0.0,0.0,0.0,0.0,0.0,0.0,0.0,-0.0140820778906,-0.0311493035406,0.00946035049856,1.21846967915e-07,0.0,0.0,0.0,1.21846967915e-07,0.0,0.0,0.0,1.21846967915e-07,-0.0359180979431,-1.43685388565,9.48365688324,9e-08,0.0,0.0,0.0,9e-08,0.0,0.0,0.0,9e-08
1438351931683500480,132133,1438351931683500480,fcu,0.0,0.0,0.0,0.0,-1.0,0.0,0.0,0.0,0.0,0.0,0.0,0.0,0.0,-0.0127054704353,-0.0310113541782,0.00962387304753,1.21846967915e-07,0.0,0.0,0.0,1.21846967915e-07,0.0,0.0,0.0,1.21846967915e-07,-0.0521594323218,-1.45328712463,9.48025894165,9e-08,0.0,0.0,0.0,9e-08,0.0,0.0,0.0,9e-08
1438351931695708936,132134,1438351931695708936,fcu,0.0,0.0,0.0,0.0,-1.0,0.0,0.0,0.0,0.0,0.0,0.0,0.0,0.0,-0.013757401146,-0.0310009103268,0.0085338158533,1.21846967915e-07,0.0,0.0,0.0,1.21846967915e-07,0.0,0.0,0.0,1.21846967915e-07,-0.0458280220628,-1.4268386364,9.47854614258,9e-08,0.0,0.0,0.0,9e-08,0.0,0.0,0.0,9e-08
1438351931707647705,132135,1438351931707647705,fcu,0.0,0.0,0.0,0.0,-1.0,0.0,0.0,0.0,0.0,0.0,0.0,0.0,0.0,-0.0153113603592,-0.0301362182945,0.00873337127268,1.21846967915e-07,0.0,0.0,0.0,1.21846967915e-07,0.0,0.0,0.0,1.21846967915e-07,-0.0409242026508,-1.41853070259,9.45687675476,9e-08,0.0,0.0,0.0,9e-08,0.0,0.0,0.0,9e-08
1438351931719615475,132136,1438351931719615475,fcu,0.0,0.0,0.0,0.0,-1.0,0.0,0.0,0.0,0.0,0.0,0.0,0.0,0.0,-0.0143922101706,-0.0301760807633,0.00983557850122,1.21846967915e-07,0.0,0.0,0.0,1.21846967915e-07,0.0,0.0,0.0,1.21846967915e-07,-0.0575148835778,-1.4274764061,9.44832515717,9e-08,0.0,0.0,0.0,9e-08,0.0,0.0,0.0,9e-08
1438351931729777393,132137,1438351931729777393,fcu,0.0,0.0,0.0,0.0,-1.0,0.0,0.0,0.0,0.0,0.0,0.0,0.0,0.0,-0.0136899324134,-0.0302138086408,0.00884677655995,1.21846967915e-07,0.0,0.0,0.0,1.21846967915e-07,0.0,0.0,0.0,1.21846967915e-07,-0.0711330249906,-1.44564902782,9.47947216034,9e-08,0.0,0.0,0.0,9e-08,0.0,0.0,0.0,9e-08
1438351931739757000,132138,1438351931739757000,fcu,0.0,0.0,0.0,0.0,-1.0,0.0,0.0,0.0,0.0,0.0,0.0,0.0,0.0,-0.0131857087836,-0.0304568279535,0.00942879915237,1.21846967915e-07,0.0,0.0,0.0,1.21846967915e-07,0.0,0.0,0.0,1.21846967915e-07,-0.0548732168972,-1.43703818321,9.47941684723,9e-08,0.0,0.0,0.0,9e-08,0.0,0.0,0.0,9e-08
1438351931749926406,132139,1438351931749926406,fcu,0.0,0.0,0.0,0.0,-1.0,0.0,0.0,0.0,0.0,0.0,0.0,0.0,0.0,-0.012847575359,-0.0320406742394,0.00875606480986,1.21846967915e-07,0.0,0.0,0.0,1.21846967915e-07,0.0,0.0,0.0,1.21846967915e-07,-0.0362535566092,-1.42061269283,9.45469284058,9e-08,0.0,0.0,0.0,9e-08,0.0,0.0,0.0,9e-08
1438351931759899407,132140,1438351931759899407,fcu,0.0,0.0,0.0,0.0,-1.0,0.0,0.0,0.0,0.0,0.0,0.0,0.0,0.0,-0.0141199072823,-0.0314661115408,0.0089643439278,1.21846967915e-07,0.0,0.0,0.0,1.21846967915e-07,0.0,0.0,0.0,1.21846967915e-07,-0.0335829332471,-1.41935908794,9.42771053314,9e-08,0.0,0.0,0.0,9e-08,0.0,0.0,0.0,9e-08
1438351931769985330,132141,1438351931769985330,fcu,0.0,0.0,0.0,0.0,-1.0,0.0,0.0,0.0,0.0,0.0,0.0,0.0,0.0,-0.0150695582852,-0.0302645452321,0.0091163571924,1.21846967915e-07,0.0,0.0,0.0,1.21846967915e-07,0.0,0.0,0.0,1.21846967915e-07,-0.047103613615,-1.4334410429,9.4412021637,9e-08,0.0,0.0,0.0,9e-08,0.0,0.0,0.0,9e-08
1438351931780032248,132142,1438351931780032248,fcu,0.0,0.0,0.0,0.0,-1.0,0.0,0.0,0.0,0.0,0.0,0.0,0.0,0.0,-0.0149222277105,-0.0298599097878,0.008863623254,1.21846967915e-07,0.0,0.0,0.0,1.21846967915e-07,0.0,0.0,0.0,1.21846967915e-07,-0.0449655354023,-1.43925178051,9.46601867676,9e-08,0.0,0.0,0.0,9e-08,0.0,0.0,0.0,9e-08
1438351931790043202,132143,1438351931790043202,fcu,0.0,0.0,0.0,0.0,-1.0,0.0,0.0,0.0,0.0,0.0,0.0,0.0,0.0,-0.0134430602193,-0.0308668874204,0.00845476984978,1.21846967915e-07,0.0,0.0,0.0,1.21846967915e-07,0.0,0.0,0.0,1.21846967915e-07,-0.0518084205687,-1.42806875706,9.45810127258,9e-08,0.0,0.0,0.0,9e-08,0.0,0.0,0.0,9e-08
1438351931800290803,132144,1438351931800290803,fcu,0.0,0.0,0.0,0.0,-1.0,0.0,0.0,0.0,0.0,0.0,0.0,0.0,0.0,-0.0141623942181,-0.0307223219424,0.00866493396461,1.21846967915e-07,0.0,0.0,0.0,1.21846967915e-07,0.0,0.0,0.0,1.21846967915e-07,-0.0526182875037,-1.41744077206,9.48044872284,9e-08,0.0,0.0,0.0,9e-08,0.0,0.0,0.0,9e-08
1438351931810259004,132145,1438351931810259004,fcu,0.0,0.0,0.0,0.0,-1.0,0.0,0.0,0.0,0.0,0.0,0.0,0.0,0.0,-0.0139881847426,-0.0300816893578,0.0081915250048,1.21846967915e-07,0.0,0.0,0.0,1.21846967915e-07,0.0,0.0,0.0,1.21846967915e-07,-0.0598465912044,-1.40701794624,9.49419879913,9e-08,0.0,0.0,0.0,9e-08,0.0,0.0,0.0,9e-08
1438351931820330237,132146,1438351931820330237,fcu,0.0,0.0,0.0,0.0,-1.0,0.0,0.0,0.0,0.0,0.0,0.0,0.0,0.0,-0.0136821847409,-0.0307772066444,0.00858470238745,1.21846967915e-07,0.0,0.0,0.0,1.21846967915e-07,0.0,0.0,0.0,1.21846967915e-07,-0.0643400028348,-1.42592084408,9.50629997253,9e-08,0.0,0.0,0.0,9e-08,0.0,0.0,0.0,9e-08
1438351931832404178,132147,1438351931832404178,fcu,0.0,0.0,0.0,0.0,-1.0,0.0,0.0,0.0,0.0,0.0,0.0,0.0,0.0,-0.0130849387497,-0.0309482589364,0.00901839789003,1.21846967915e-07,0.0,0.0,0.0,1.21846967915e-07,0.0,0.0,0.0,1.21846967915e-07,-0.0520441941917,-1.43125557899,9.46619415283,9e-08,0.0,0.0,0.0,9e-08,0.0,0.0,0.0,9e-08
1438351931842414205,132148,1438351931842414205,fcu,0.0,0.0,0.0,0.0,-1.0,0.0,0.0,0.0,0.0,0.0,0.0,0.0,0.0,-0.0136978020892,-0.0306409448385,0.00959869567305,1.21846967915e-07,0.0,0.0,0.0,1.21846967915e-07,0.0,0.0,0.0,1.21846967915e-07,-0.0413252040744,-1.4230145216,9.46113109589,9e-08,0.0,0.0,0.0,9e-08,0.0,0.0,0.0,9e-08
1438351931852543729,132149,1438351931852543729,fcu,0.0,0.0,0.0,0.0,-1.0,0.0,0.0,0.0,0.0,0.0,0.0,0.0,0.0,-0.0140995150432,-0.0307559221983,0.00895521230996,1.21846967915e-07,0.0,0.0,0.0,1.21846967915e-07,0.0,0.0,0.0,1.21846967915e-07,-0.0342399477959,-1.44104862213,9.46306705475,9e-08,0.0,0.0,0.0,9e-08,0.0,0.0,0.0,9e-08
1438351931862645403,132150,1438351931862645403,fcu,0.0,0.0,0.0,0.0,-1.0,0.0,0.0,0.0,0.0,0.0,0.0,0.0,0.0,-0.0140775293112,-0.0308453924954,0.00816035084426,1.21846967915e-07,0.0,0.0,0.0,1.21846967915e-07,0.0,0.0,0.0,1.21846967915e-07,-0.0434293970466,-1.43542838097,9.46151733398,9e-08,0.0,0.0,0.0,9e-08,0.0,0.0,0.0,9e-08
1438351931872681059,132151,1438351931872681059,fcu,0.0,0.0,0.0,0.0,-1.0,0.0,0.0,0.0,0.0,0.0,0.0,0.0,0.0,-0.0138904089108,-0.030471784994,0.00919092819095,1.21846967915e-07,0.0,0.0,0.0,1.21846967915e-07,0.0,0.0,0.0,1.21846967915e-07,-0.0495070740581,-1.43016803265,9.46277999878,9e-08,0.0,0.0,0.0,9e-08,0.0,0.0,0.0,9e-08
1438351931882796440,132152,1438351931882796440,fcu,0.0,0.0,0.0,0.0,-1.0,0.0,0.0,0.0,0.0,0.0,0.0,0.0,0.0,-0.0136559801176,-0.0306297540665,0.00960195157677,1.21846967915e-07,0.0,0.0,0.0,1.21846967915e-07,0.0,0.0,0.0,1.21846967915e-07,-0.0657777115703,-1.42456817627,9.43029880524,9e-08,0.0,0.0,0.0,9e-08,0.0,0.0,0.0,9e-08
1438351931892799546,132153,1438351931892799546,fcu,0.0,0.0,0.0,0.0,-1.0,0.0,0.0,0.0,0.0,0.0,0.0,0.0,0.0,-0.0143176373094,-0.0305869113654,0.00894809886813,1.21846967915e-07,0.0,0.0,0.0,1.21846967915e-07,0.0,0.0,0.0,1.21846967915e-07,-0.0630756244063,-1.43401956558,9.43174266815,9e-08,0.0,0.0,0.0,9e-08,0.0,0.0,0.0,9e-08
1438351931902878322,132154,1438351931902878322,fcu,0.0,0.0,0.0,0.0,-1.0,0.0,0.0,0.0,0.0,0.0,0.0,0.0,0.0,-0.0140991751105,-0.0306972730905,0.00863920710981,1.21846967915e-07,0.0,0.0,0.0,1.21846967915e-07,0.0,0.0,0.0,1.21846967915e-07,-0.0446353554726,-1.42925059795,9.43468952179,9e-08,0.0,0.0,0.0,9e-08,0.0,0.0,0.0,9e-08
1438351931913020194,132155,1438351931913020194,fcu,0.0,0.0,0.0,0.0,-1.0,0.0,0.0,0.0,0.0,0.0,0.0,0.0,0.0,-0.013876112178,-0.0310918819159,0.00878108013421,1.21846967915e-07,0.0,0.0,0.0,1.21846967915e-07,0.0,0.0,0.0,1.21846967915e-07,-0.045130956918,-1.43394041061,9.46388721466,9e-08,0.0,0.0,0.0,9e-08,0.0,0.0,0.0,9e-08
1438351931925155211,132156,1438351931925155211,fcu,0.0,0.0,0.0,0.0,-1.0,0.0,0.0,0.0,0.0,0.0,0.0,0.0,0.0,-0.0130633199587,-0.0311992354691,0.00888681504875,1.21846967915e-07,0.0,0.0,0.0,1.21846967915e-07,0.0,0.0,0.0,1.21846967915e-07,-0.0527256838977,-1.44021677971,9.50335788727,9e-08,0.0,0.0,0.0,9e-08,0.0,0.0,0.0,9e-08
1438351931935059369,132157,1438351931935059369,fcu,0.0,0.0,0.0,0.0,-1.0,0.0,0.0,0.0,0.0,0.0,0.0,0.0,0.0,-0.0146225299686,-0.0303500127047,0.00935447495431,1.21846967915e-07,0.0,0.0,0.0,1.21846967915e-07,0.0,0.0,0.0,1.21846967915e-07,-0.0540667809546,-1.43536448479,9.50358867645,9e-08,0.0,0.0,0.0,9e-08,0.0,0.0,0.0,9e-08
1438351931945206352,132158,1438351931945206352,fcu,0.0,0.0,0.0,0.0,-1.0,0.0,0.0,0.0,0.0,0.0,0.0,0.0,0.0,-0.0147006865591,-0.0301764514297,0.00917283724993,1.21846967915e-07,0.0,0.0,0.0,1.21846967915e-07,0.0,0.0,0.0,1.21846967915e-07,-0.0498335957527,-1.42875802517,9.48551559448,9e-08,0.0,0.0,0.0,9e-08,0.0,0.0,0.0,9e-08
1438351931955360197,132159,1438351931955360197,fcu,0.0,0.0,0.0,0.0,-1.0,0.0,0.0,0.0,0.0,0.0,0.0,0.0,0.0,-0.0142726078629,-0.0304821673781,0.0088209733367,1.21846967915e-07,0.0,0.0,0.0,1.21846967915e-07,0.0,0.0,0.0,1.21846967915e-07,-0.0379509851336,-1.42957830429,9.45226478577,9e-08,0.0,0.0,0.0,9e-08,0.0,0.0,0.0,9e-08
1438351931967457011,132160,1438351931967457011,fcu,0.0,0.0,0.0,0.0,-1.0,0.0,0.0,0.0,0.0,0.0,0.0,0.0,0.0,-0.0130995847285,-0.0306587014347,0.00896241981536,1.21846967915e-07,0.0,0.0,0.0,1.21846967915e-07,0.0,0.0,0.0,1.21846967915e-07,-0.0461043044925,-1.43237829208,9.46164512634,9e-08,0.0,0.0,0.0,9e-08,0.0,0.0,0.0,9e-08
1438351931977466612,132161,1438351931977466612,fcu,0.0,0.0,0.0,0.0,-1.0,0.0,0.0,0.0,0.0,0.0,0.0,0.0,0.0,-0.0133924856782,-0.031175211072,0.00933146011084,1.21846967915e-07,0.0,0.0,0.0,1.21846967915e-07,0.0,0.0,0.0,1.21846967915e-07,-0.0530183836818,-1.44302475452,9.46812057495,9e-08,0.0,0.0,0.0,9e-08,0.0,0.0,0.0,9e-08
1438351931989496085,132162,1438351931989496085,fcu,0.0,0.0,0.0,0.0,-1.0,0.0,0.0,0.0,0.0,0.0,0.0,0.0,0.0,-0.0139882974327,-0.031320668757,0.00917636696249,1.21846967915e-07,0.0,0.0,0.0,1.21846967915e-07,0.0,0.0,0.0,1.21846967915e-07,-0.0475773364305,-1.43019378185,9.4631023407,9e-08,0.0,0.0,0.0,9e-08,0.0,0.0,0.0,9e-08
1438351931999671103,132163,1438351931999671103,fcu,0.0,0.0,0.0,0.0,-1.0,0.0,0.0,0.0,0.0,0.0,0.0,0.0,0.0,-0.0135842645541,-0.0303424820304,0.00854382757097,1.21846967915e-07,0.0,0.0,0.0,1.21846967915e-07,0.0,0.0,0.0,1.21846967915e-07,-0.0554430894554,-1.42705452442,9.47587108612,9e-08,0.0,0.0,0.0,9e-08,0.0,0.0,0.0,9e-08
1438351932011620972,132164,1438351932011620972,fcu,0.0,0.0,0.0,0.0,-1.0,0.0,0.0,0.0,0.0,0.0,0.0,0.0,0.0,-0.0140909561887,-0.0303482022136,0.00836905930191,1.21846967915e-07,0.0,0.0,0.0,1.21846967915e-07,0.0,0.0,0.0,1.21846967915e-07,-0.0435671769083,-1.43887734413,9.48030376434,9e-08,0.0,0.0,0.0,9e-08,0.0,0.0,0.0,9e-08
1438351932021941592,132165,1438351932021941592,fcu,0.0,0.0,0.0,0.0,-1.0,0.0,0.0,0.0,0.0,0.0,0.0,0.0,0.0,-0.0140047380701,-0.0303080584854,0.00893577374518,1.21846967915e-07,0.0,0.0,0.0,1.21846967915e-07,0.0,0.0,0.0,1.21846967915e-07,-0.0645769536495,-1.43437302113,9.47989940643,9e-08,0.0,0.0,0.0,9e-08,0.0,0.0,0.0,9e-08
1438351932033963508,132166,1438351932033963508,fcu,0.0,0.0,0.0,0.0,-1.0,0.0,0.0,0.0,0.0,0.0,0.0,0.0,0.0,-0.0149344205856,-0.0305711962283,0.00905184727162,1.21846967915e-07,0.0,0.0,0.0,1.21846967915e-07,0.0,0.0,0.0,1.21846967915e-07,-0.0658729448915,-1.41747140884,9.45880413055,9e-08,0.0,0.0,0.0,9e-08,0.0,0.0,0.0,9e-08
1438351932043993135,132167,1438351932043993135,fcu,0.0,0.0,0.0,0.0,-1.0,0.0,0.0,0.0,0.0,0.0,0.0,0.0,0.0,-0.0134840523824,-0.0295698735863,0.00777405872941,1.21846967915e-07,0.0,0.0,0.0,1.21846967915e-07,0.0,0.0,0.0,1.21846967915e-07,-0.0373998470604,-1.42225837708,9.44368076324,9e-08,0.0,0.0,0.0,9e-08,0.0,0.0,0.0,9e-08
1438351932055959172,132168,1438351932055959172,fcu,0.0,0.0,0.0,0.0,-1.0,0.0,0.0,0.0,0.0,0.0,0.0,0.0,0.0,-0.0138574587181,-0.0299682933837,0.00850297603756,1.21846967915e-07,0.0,0.0,0.0,1.21846967915e-07,0.0,0.0,0.0,1.21846967915e-07,-0.0293080266565,-1.43936955929,9.47467899323,9e-08,0.0,0.0,0.0,9e-08,0.0,0.0,0.0,9e-08
1438351932066286136,132169,1438351932066286136,fcu,0.0,0.0,0.0,0.0,-1.0,0.0,0.0,0.0,0.0,0.0,0.0,0.0,0.0,-0.0138434907421,-0.0311053264886,0.00831260066479,1.21846967915e-07,0.0,0.0,0.0,1.21846967915e-07,0.0,0.0,0.0,1.21846967915e-07,-0.0311454162002,-1.42551004887,9.4644536972,9e-08,0.0,0.0,0.0,9e-08,0.0,0.0,0.0,9e-08
1438351932078264231,132170,1438351932078264231,fcu,0.0,0.0,0.0,0.0,-1.0,0.0,0.0,0.0,0.0,0.0,0.0,0.0,0.0,-0.0134013332427,-0.0306904409081,0.00983559247106,1.21846967915e-07,0.0,0.0,0.0,1.21846967915e-07,0.0,0.0,0.0,1.21846967915e-07,-0.036305308342,-1.41491580009,9.4541721344,9e-08,0.0,0.0,0.0,9e-08,0.0,0.0,0.0,9e-08
1438351932088407105,132171,1438351932088407105,fcu,0.0,0.0,0.0,0.0,-1.0,0.0,0.0,0.0,0.0,0.0,0.0,0.0,0.0,-0.0135001782328,-0.030430778861,0.00977565906942,1.21846967915e-07,0.0,0.0,0.0,1.21846967915e-07,0.0,0.0,0.0,1.21846967915e-07,-0.0380948781967,-1.42647707462,9.47887897491,9e-08,0.0,0.0,0.0,9e-08,0.0,0.0,0.0,9e-08
1438351932100383270,132172,1438351932100383270,fcu,0.0,0.0,0.0,0.0,-1.0,0.0,0.0,0.0,0.0,0.0,0.0,0.0,0.0,-0.0132863465697,-0.0306096337736,0.00834053941071,1.21846967915e-07,0.0,0.0,0.0,1.21846967915e-07,0.0,0.0,0.0,1.21846967915e-07,-0.0446824170649,-1.42395448685,9.46412754059,9e-08,0.0,0.0,0.0,9e-08,0.0,0.0,0.0,9e-08
1438351932110565956,132173,1438351932110565956,fcu,0.0,0.0,0.0,0.0,-1.0,0.0,0.0,0.0,0.0,0.0,0.0,0.0,0.0,-0.0136920725927,-0.0314204804599,0.00848489254713,1.21846967915e-07,0.0,0.0,0.0,1.21846967915e-07,0.0,0.0,0.0,1.21846967915e-07,-0.0459783114493,-1.43265092373,9.46118927002,9e-08,0.0,0.0,0.0,9e-08,0.0,0.0,0.0,9e-08
1438351932122585997,132174,1438351932122585997,fcu,0.0,0.0,0.0,0.0,-1.0,0.0,0.0,0.0,0.0,0.0,0.0,0.0,0.0,-0.0136455688626,-0.0312721766531,0.00916935503483,1.21846967915e-07,0.0,0.0,0.0,1.21846967915e-07,0.0,0.0,0.0,1.21846967915e-07,-0.0524386912584,-1.44675970078,9.50422954559,9e-08,0.0,0.0,0.0,9e-08,0.0,0.0,0.0,9e-08
1438351932132577882,132175,1438351932132577882,fcu,0.0,0.0,0.0,0.0,-1.0,0.0,0.0,0.0,0.0,0.0,0.0,0.0,0.0,-0.0136464452371,-0.0306734479964,0.00880470871925,1.21846967915e-07,0.0,0.0,0.0,1.21846967915e-07,0.0,0.0,0.0,1.21846967915e-07,-0.0527386255562,-1.43333208561,9.48844337463,9e-08,0.0,0.0,0.0,9e-08,0.0,0.0,0.0,9e-08
1438351932142699182,132176,1438351932142699182,fcu,0.0,0.0,0.0,0.0,-1.0,0.0,0.0,0.0,0.0,0.0,0.0,0.0,0.0,-0.0142363552004,-0.0313087925315,0.00869564339519,1.21846967915e-07,0.0,0.0,0.0,1.21846967915e-07,0.0,0.0,0.0,1.21846967915e-07,-0.0422058403492,-1.43247258663,9.45474052429,9e-08,0.0,0.0,0.0,9e-08,0.0,0.0,0.0,9e-08
1438351932154963768,132177,1438351932154963768,fcu,0.0,0.0,0.0,0.0,-1.0,0.0,0.0,0.0,0.0,0.0,0.0,0.0,0.0,-0.0143517209217,-0.0314121432602,0.00870829261839,1.21846967915e-07,0.0,0.0,0.0,1.21846967915e-07,0.0,0.0,0.0,1.21846967915e-07,-0.0517839714885,-1.43341040611,9.46924114227,9e-08,0.0,0.0,0.0,9e-08,0.0,0.0,0.0,9e-08
1438351932166834604,132178,1438351932166834604,fcu,0.0,0.0,0.0,0.0,-1.0,0.0,0.0,0.0,0.0,0.0,0.0,0.0,0.0,-0.0144671173766,-0.0304729491472,0.00927332881838,1.21846967915e-07,0.0,0.0,0.0,1.21846967915e-07,0.0,0.0,0.0,1.21846967915e-07,-0.056818023324,-1.44552540779,9.45898151398,9e-08,0.0,0.0,0.0,9e-08,0.0,0.0,0.0,9e-08
1438351932176952280,132179,1438351932176952280,fcu,0.0,0.0,0.0,0.0,-1.0,0.0,0.0,0.0,0.0,0.0,0.0,0.0,0.0,-0.0134324599057,-0.0302971918136,0.00850842986256,1.21846967915e-07,0.0,0.0,0.0,1.21846967915e-07,0.0,0.0,0.0,1.21846967915e-07,-0.0634530708194,-1.43857645988,9.45477294922,9e-08,0.0,0.0,0.0,9e-08,0.0,0.0,0.0,9e-08
1438351932188943019,132180,1438351932188943019,fcu,0.0,0.0,0.0,0.0,-1.0,0.0,0.0,0.0,0.0,0.0,0.0,0.0,0.0,-0.0139620350674,-0.0303805340081,0.00797168537974,1.21846967915e-07,0.0,0.0,0.0,1.21846967915e-07,0.0,0.0,0.0,1.21846967915e-07,-0.0605719089508,-1.43108129501,9.48702716827,9e-08,0.0,0.0,0.0,9e-08,0.0,0.0,0.0,9e-08
1438351932199025799,132181,1438351932199025799,fcu,0.0,0.0,0.0,0.0,-1.0,0.0,0.0,0.0,0.0,0.0,0.0,0.0,0.0,-0.0145909357816,-0.0307379793376,0.00845124665648,1.21846967915e-07,0.0,0.0,0.0,1.21846967915e-07,0.0,0.0,0.0,1.21846967915e-07,-0.0559089630842,-1.4234521389,9.49013900757,9e-08,0.0,0.0,0.0,9e-08,0.0,0.0,0.0,9e-08
1438351932209162444,132182,1438351932209162444,fcu,0.0,0.0,0.0,0.0,-1.0,0.0,0.0,0.0,0.0,0.0,0.0,0.0,0.0,-0.0143641345203,-0.0306540448219,0.00851206760854,1.21846967915e-07,0.0,0.0,0.0,1.21846967915e-07,0.0,0.0,0.0,1.21846967915e-07,-0.0598387345672,-1.43795919418,9.4823513031,9e-08,0.0,0.0,0.0,9e-08,0.0,0.0,0.0,9e-08
1438351932221322178,132183,1438351932221322178,fcu,0.0,0.0,0.0,0.0,-1.0,0.0,0.0,0.0,0.0,0.0,0.0,0.0,0.0,-0.0144794825464,-0.0314390435815,0.00820035114884,1.21846967915e-07,0.0,0.0,0.0,1.21846967915e-07,0.0,0.0,0.0,1.21846967915e-07,-0.0359442420304,-1.43794560432,9.47717094421,9e-08,0.0,0.0,0.0,9e-08,0.0,0.0,0.0,9e-08
1438351932233256351,132184,1438351932233256351,fcu,0.0,0.0,0.0,0.0,-1.0,0.0,0.0,0.0,0.0,0.0,0.0,0.0,0.0,-0.01489399001,-0.0309435240924,0.00864319130778,1.21846967915e-07,0.0,0.0,0.0,1.21846967915e-07,0.0,0.0,0.0,1.21846967915e-07,-0.0597591102123,-1.44291055202,9.44669342041,9e-08,0.0,0.0,0.0,9e-08,0.0,0.0,0.0,9e-08
1438351932243480839,132185,1438351932243480839,fcu,0.0,0.0,0.0,0.0,-1.0,0.0,0.0,0.0,0.0,0.0,0.0,0.0,0.0,-0.0151014383882,-0.0306389201432,0.0091893253848,1.21846967915e-07,0.0,0.0,0.0,1.21846967915e-07,0.0,0.0,0.0,1.21846967915e-07,-0.0465585142374,-1.42581391335,9.48070049286,9e-08,0.0,0.0,0.0,9e-08,0.0,0.0,0.0,9e-08
1438351932255381183,132186,1438351932255381183,fcu,0.0,0.0,0.0,0.0,-1.0,0.0,0.0,0.0,0.0,0.0,0.0,0.0,0.0,-0.0145250214264,-0.0302846059203,0.00902355834842,1.21846967915e-07,0.0,0.0,0.0,1.21846967915e-07,0.0,0.0,0.0,1.21846967915e-07,-0.044811964035,-1.43295943737,9.45395278931,9e-08,0.0,0.0,0.0,9e-08,0.0,0.0,0.0,9e-08
1438351932265795028,132187,1438351932265795028,fcu,0.0,0.0,0.0,0.0,-1.0,0.0,0.0,0.0,0.0,0.0,0.0,0.0,0.0,-0.0147246923298,-0.0306553672999,0.00932239275426,1.21846967915e-07,0.0,0.0,0.0,1.21846967915e-07,0.0,0.0,0.0,1.21846967915e-07,-0.0424777194858,-1.43689572811,9.4563627243,9e-08,0.0,0.0,0.0,9e-08,0.0,0.0,0.0,9e-08
1438351932277533810,132188,1438351932277533810,fcu,0.0,0.0,0.0,0.0,-1.0,0.0,0.0,0.0,0.0,0.0,0.0,0.0,0.0,-0.014383549802,-0.0313961990178,0.008869134821,1.21846967915e-07,0.0,0.0,0.0,1.21846967915e-07,0.0,0.0,0.0,1.21846967915e-07,-0.0495429001749,-1.42573523521,9.48065948486,9e-08,0.0,0.0,0.0,9e-08,0.0,0.0,0.0,9e-08
1438351932287765825,132189,1438351932287765825,fcu,0.0,0.0,0.0,0.0,-1.0,0.0,0.0,0.0,0.0,0.0,0.0,0.0,0.0,-0.014408162795,-0.0310180019587,0.0084463339299,1.21846967915e-07,0.0,0.0,0.0,1.21846967915e-07,0.0,0.0,0.0,1.21846967915e-07,-0.0635901540518,-1.41195940971,9.4893693924,9e-08,0.0,0.0,0.0,9e-08,0.0,0.0,0.0,9e-08
1438351932299736607,132190,1438351932299736607,fcu,0.0,0.0,0.0,0.0,-1.0,0.0,0.0,0.0,0.0,0.0,0.0,0.0,0.0,-0.0142398262396,-0.0319713950157,0.00896516442299,1.21846967915e-07,0.0,0.0,0.0,1.21846967915e-07,0.0,0.0,0.0,1.21846967915e-07,-0.0425265990198,-1.40994095802,9.4731836319,9e-08,0.0,0.0,0.0,9e-08,0.0,0.0,0.0,9e-08
1438351932309922290,132191,1438351932309922290,fcu,0.0,0.0,0.0,0.0,-1.0,0.0,0.0,0.0,0.0,0.0,0.0,0.0,0.0,-0.01398396492,-0.0318691320717,0.00942758005112,1.21846967915e-07,0.0,0.0,0.0,1.21846967915e-07,0.0,0.0,0.0,1.21846967915e-07,-0.0288600753993,-1.42016482353,9.46360111237,9e-08,0.0,0.0,0.0,9e-08,0.0,0.0,0.0,9e-08
1438351932321897468,132192,1438351932321897468,fcu,0.0,0.0,0.0,0.0,-1.0,0.0,0.0,0.0,0.0,0.0,0.0,0.0,0.0,-0.0138180768117,-0.0305156186223,0.00999179761857,1.21846967915e-07,0.0,0.0,0.0,1.21846967915e-07,0.0,0.0,0.0,1.21846967915e-07,-0.0607220716774,-1.41965591908,9.46070766449,9e-08,0.0,0.0,0.0,9e-08,0.0,0.0,0.0,9e-08
1438351932332027758,132193,1438351932332027758,fcu,0.0,0.0,0.0,0.0,-1.0,0.0,0.0,0.0,0.0,0.0,0.0,0.0,0.0,-0.0139147005975,-0.0308505631983,0.00990469101816,1.21846967915e-07,0.0,0.0,0.0,1.21846967915e-07,0.0,0.0,0.0,1.21846967915e-07,-0.0424768924713,-1.43047511578,9.44756984711,9e-08,0.0,0.0,0.0,9e-08,0.0,0.0,0.0,9e-08
1438351932343976184,132194,1438351932343976184,fcu,0.0,0.0,0.0,0.0,-1.0,0.0,0.0,0.0,0.0,0.0,0.0,0.0,0.0,-0.0140339918435,-0.0316800735891,0.00954114366323,1.21846967915e-07,0.0,0.0,0.0,1.21846967915e-07,0.0,0.0,0.0,1.21846967915e-07,-0.0518767610192,-1.44509375095,9.45474052429,9e-08,0.0,0.0,0.0,9e-08,0.0,0.0,0.0,9e-08
1438351932354220813,132195,1438351932354220813,fcu,0.0,0.0,0.0,0.0,-1.0,0.0,0.0,0.0,0.0,0.0,0.0,0.0,0.0,-0.013876167126,-0.0312338769436,0.00921624992043,1.21846967915e-07,0.0,0.0,0.0,1.21846967915e-07,0.0,0.0,0.0,1.21846967915e-07,-0.0576082095504,-1.45204138756,9.48038005829,9e-08,0.0,0.0,0.0,9e-08,0.0,0.0,0.0,9e-08
1438351932366288294,132196,1438351932366288294,fcu,0.0,0.0,0.0,0.0,-1.0,0.0,0.0,0.0,0.0,0.0,0.0,0.0,0.0,-0.0138753000647,-0.0305234808475,0.00895491242409,1.21846967915e-07,0.0,0.0,0.0,1.21846967915e-07,0.0,0.0,0.0,1.21846967915e-07,-0.0557148866355,-1.45096564293,9.47335910797,9e-08,0.0,0.0,0.0,9e-08,0.0,0.0,0.0,9e-08
1438351932376421897,132197,1438351932376421897,fcu,0.0,0.0,0.0,0.0,-1.0,0.0,0.0,0.0,0.0,0.0,0.0,0.0,0.0,-0.0142245506868,-0.0318058021367,0.00869234185666,1.21846967915e-07,0.0,0.0,0.0,1.21846967915e-07,0.0,0.0,0.0,1.21846967915e-07,-0.047885723412,-1.43796503544,9.46290016174,9e-08,0.0,0.0,0.0,9e-08,0.0,0.0,0.0,9e-08
1438351932388370087,132198,1438351932388370087,fcu,0.0,0.0,0.0,0.0,-1.0,0.0,0.0,0.0,0.0,0.0,0.0,0.0,0.0,-0.0133478241041,-0.0310879908502,0.0086836963892,1.21846967915e-07,0.0,0.0,0.0,1.21846967915e-07,0.0,0.0,0.0,1.21846967915e-07,-0.0562868341804,-1.43033397198,9.46600723267,9e-08,0.0,0.0,0.0,9e-08,0.0,0.0,0.0,9e-08
1438351932398493807,132199,1438351932398493807,fcu,0.0,0.0,0.0,0.0,-1.0,0.0,0.0,0.0,0.0,0.0,0.0,0.0,0.0,-0.0141306975856,-0.0308392681181,0.00927790161222,1.21846967915e-07,0.0,0.0,0.0,1.21846967915e-07,0.0,0.0,0.0,1.21846967915e-07,-0.0631155669689,-1.44429373741,9.46887588501,9e-08,0.0,0.0,0.0,9e-08,0.0,0.0,0.0,9e-08
1438351932410440328,132200,1438351932410440328,fcu,0.0,0.0,0.0,0.0,-1.0,0.0,0.0,0.0,0.0,0.0,0.0,0.0,0.0,-0.0142337847501,-0.0309313349426,0.00909704621881,1.21846967915e-07,0.0,0.0,0.0,1.21846967915e-07,0.0,0.0,0.0,1.21846967915e-07,-0.0631989389658,-1.43665158749,9.4662694931,9e-08,0.0,0.0,0.0,9e-08,0.0,0.0,0.0,9e-08
1438351932420704793,132201,1438351932420704793,fcu,0.0,0.0,0.0,0.0,-1.0,0.0,0.0,0.0,0.0,0.0,0.0,0.0,0.0,-0.0137699292973,-0.0311261154711,0.00938785914332,1.21846967915e-07,0.0,0.0,0.0,1.21846967915e-07,0.0,0.0,0.0,1.21846967915e-07,-0.0460843741894,-1.43519806862,9.48211288452,9e-08,0.0,0.0,0.0,9e-08,0.0,0.0,0.0,9e-08
1438351932432668996,132202,1438351932432668996,fcu,0.0,0.0,0.0,0.0,-1.0,0.0,0.0,0.0,0.0,0.0,0.0,0.0,0.0,-0.0140953008085,-0.0307783223689,0.00981348473579,1.21846967915e-07,0.0,0.0,0.0,1.21846967915e-07,0.0,0.0,0.0,1.21846967915e-07,-0.0342945605516,-1.42345416546,9.46312236786,9e-08,0.0,0.0,0.0,9e-08,0.0,0.0,0.0,9e-08
1438351932442867132,132203,1438351932442867132,fcu,0.0,0.0,0.0,0.0,-1.0,0.0,0.0,0.0,0.0,0.0,0.0,0.0,0.0,-0.0136295352131,-0.0305410288274,0.0094670811668,1.21846967915e-07,0.0,0.0,0.0,1.21846967915e-07,0.0,0.0,0.0,1.21846967915e-07,-0.0396048687398,-1.42905068398,9.4481754303,9e-08,0.0,0.0,0.0,9e-08,0.0,0.0,0.0,9e-08
1438351932454753786,132204,1438351932454753786,fcu,0.0,0.0,0.0,0.0,-1.0,0.0,0.0,0.0,0.0,0.0,0.0,0.0,0.0,-0.0133334575221,-0.029552211985,0.0092236828059,1.21846967915e-07,0.0,0.0,0.0,1.21846967915e-07,0.0,0.0,0.0,1.21846967915e-07,-0.0478135980666,-1.42701613903,9.46349143982,9e-08,0.0,0.0,0.0,9e-08,0.0,0.0,0.0,9e-08
1438351932465055908,132205,1438351932465055908,fcu,0.0,0.0,0.0,0.0,-1.0,0.0,0.0,0.0,0.0,0.0,0.0,0.0,0.0,-0.0139277875423,-0.0311717856675,0.00940322317183,1.21846967915e-07,0.0,0.0,0.0,1.21846967915e-07,0.0,0.0,0.0,1.21846967915e-07,-0.0575898066163,-1.4284965992,9.48305130005,9e-08,0.0,0.0,0.0,9e-08,0.0,0.0,0.0,9e-08
1438351932475210930,132206,1438351932475210930,fcu,0.0,0.0,0.0,0.0,-1.0,0.0,0.0,0.0,0.0,0.0,0.0,0.0,0.0,-0.0136457104236,-0.0312932915986,0.00916772056371,1.21846967915e-07,0.0,0.0,0.0,1.21846967915e-07,0.0,0.0,0.0,1.21846967915e-07,-0.0452245846391,-1.43989193439,9.49186420441,9e-08,0.0,0.0,0.0,9e-08,0.0,0.0,0.0,9e-08
1438351932485052227,132207,1438351932485052227,fcu,0.0,0.0,0.0,0.0,-1.0,0.0,0.0,0.0,0.0,0.0,0.0,0.0,0.0,-0.0136129613966,-0.0301707386971,0.00917558372021,1.21846967915e-07,0.0,0.0,0.0,1.21846967915e-07,0.0,0.0,0.0,1.21846967915e-07,-0.0440637283027,-1.44264853001,9.50535869598,9e-08,0.0,0.0,0.0,9e-08,0.0,0.0,0.0,9e-08
1438351932495255782,132208,1438351932495255782,fcu,0.0,0.0,0.0,0.0,-1.0,0.0,0.0,0.0,0.0,0.0,0.0,0.0,0.0,-0.0144145553932,-0.0299436897039,0.00930295418948,1.21846967915e-07,0.0,0.0,0.0,1.21846967915e-07,0.0,0.0,0.0,1.21846967915e-07,-0.0289873946458,-1.43292593956,9.49708366394,9e-08,0.0,0.0,0.0,9e-08,0.0,0.0,0.0,9e-08
1438351932505240731,132209,1438351932505240731,fcu,0.0,0.0,0.0,0.0,-1.0,0.0,0.0,0.0,0.0,0.0,0.0,0.0,0.0,-0.014631157741,-0.0303315129131,0.00954249128699,1.21846967915e-07,0.0,0.0,0.0,1.21846967915e-07,0.0,0.0,0.0,1.21846967915e-07,-0.032862611115,-1.44324707985,9.46394634247,9e-08,0.0,0.0,0.0,9e-08,0.0,0.0,0.0,9e-08
1438351932515385309,132210,1438351932515385309,fcu,0.0,0.0,0.0,0.0,-1.0,0.0,0.0,0.0,0.0,0.0,0.0,0.0,0.0,-0.0142610631883,-0.0298552270979,0.00906907580793,1.21846967915e-07,0.0,0.0,0.0,1.21846967915e-07,0.0,0.0,0.0,1.21846967915e-07,-0.0530558824539,-1.43853640556,9.44874668121,9e-08,0.0,0.0,0.0,9e-08,0.0,0.0,0.0,9e-08
1438351932527354423,132211,1438351932527354423,fcu,0.0,0.0,0.0,0.0,-1.0,0.0,0.0,0.0,0.0,0.0,0.0,0.0,0.0,-0.0146551625803,-0.0306036807597,0.00844901520759,1.21846967915e-07,0.0,0.0,0.0,1.21846967915e-07,0.0,0.0,0.0,1.21846967915e-07,-0.0682167038321,-1.43800246716,9.47316360474,9e-08,0.0,0.0,0.0,9e-08,0.0,0.0,0.0,9e-08
1438351932537426779,132212,1438351932537426779,fcu,0.0,0.0,0.0,0.0,-1.0,0.0,0.0,0.0,0.0,0.0,0.0,0.0,0.0,-0.0145514057949,-0.0315323248506,0.0092983469367,1.21846967915e-07,0.0,0.0,0.0,1.21846967915e-07,0.0,0.0,0.0,1.21846967915e-07,-0.0670937150717,-1.427749753,9.4775018692,9e-08,0.0,0.0,0.0,9e-08,0.0,0.0,0.0,9e-08
1438351932547559530,132213,1438351932547559530,fcu,0.0,0.0,0.0,0.0,-1.0,0.0,0.0,0.0,0.0,0.0,0.0,0.0,0.0,-0.0141844628379,-0.0314298756421,0.00971532985568,1.21846967915e-07,0.0,0.0,0.0,1.21846967915e-07,0.0,0.0,0.0,1.21846967915e-07,-0.0670519843698,-1.42592358589,9.46726799011,9e-08,0.0,0.0,0.0,9e-08,0.0,0.0,0.0,9e-08
1438351932559592716,132214,1438351932559592716,fcu,0.0,0.0,0.0,0.0,-1.0,0.0,0.0,0.0,0.0,0.0,0.0,0.0,0.0,-0.0144522730261,-0.0305753536522,0.00965087302029,1.21846967915e-07,0.0,0.0,0.0,1.21846967915e-07,0.0,0.0,0.0,1.21846967915e-07,-0.0536775700748,-1.42786550522,9.48099517822,9e-08,0.0,0.0,0.0,9e-08,0.0,0.0,0.0,9e-08
1438351932571596570,132215,1438351932571596570,fcu,0.0,0.0,0.0,0.0,-1.0,0.0,0.0,0.0,0.0,0.0,0.0,0.0,0.0,-0.0141219319776,-0.0309523120522,0.00868906825781,1.21846967915e-07,0.0,0.0,0.0,1.21846967915e-07,0.0,0.0,0.0,1.21846967915e-07,-0.0330055356026,-1.42780089378,9.45737838745,9e-08,0.0,0.0,0.0,9e-08,0.0,0.0,0.0,9e-08
1438351932581629270,132216,1438351932581629270,fcu,0.0,0.0,0.0,0.0,-1.0,0.0,0.0,0.0,0.0,0.0,0.0,0.0,0.0,-0.0138687910512,-0.0302607081831,0.00913632847369,1.21846967915e-07,0.0,0.0,0.0,1.21846967915e-07,0.0,0.0,0.0,1.21846967915e-07,-0.0354579687119,-1.43147134781,9.452252388,9e-08,0.0,0.0,0.0,9e-08,0.0,0.0,0.0,9e-08
1438351932591681615,132217,1438351932591681615,fcu,0.0,0.0,0.0,0.0,-1.0,0.0,0.0,0.0,0.0,0.0,0.0,0.0,0.0,-0.0146991303191,-0.0306566469371,0.00916494708508,1.21846967915e-07,0.0,0.0,0.0,1.21846967915e-07,0.0,0.0,0.0,1.21846967915e-07,-0.0390561185777,-1.43206477165,9.44603538513,9e-08,0.0,0.0,0.0,9e-08,0.0,0.0,0.0,9e-08
1438351932601906884,132218,1438351932601906884,fcu,0.0,0.0,0.0,0.0,-1.0,0.0,0.0,0.0,0.0,0.0,0.0,0.0,0.0,-0.0141559494659,-0.0313632972538,0.00954094249755,1.21846967915e-07,0.0,0.0,0.0,1.21846967915e-07,0.0,0.0,0.0,1.21846967915e-07,-0.0469184182584,-1.4347165823,9.45537757874,9e-08,0.0,0.0,0.0,9e-08,0.0,0.0,0.0,9e-08
1438351932613982885,132219,1438351932613982885,fcu,0.0,0.0,0.0,0.0,-1.0,0.0,0.0,0.0,0.0,0.0,0.0,0.0,0.0,-0.0132247470319,-0.031348247081,0.00945392344147,1.21846967915e-07,0.0,0.0,0.0,1.21846967915e-07,0.0,0.0,0.0,1.21846967915e-07,-0.0337507389486,-1.41384851933,9.46312904358,9e-08,0.0,0.0,0.0,9e-08,0.0,0.0,0.0,9e-08
1438351932623961129,132220,1438351932623961129,fcu,0.0,0.0,0.0,0.0,-1.0,0.0,0.0,0.0,0.0,0.0,0.0,0.0,0.0,-0.0142006604001,-0.0300695076585,0.00851123593748,1.21846967915e-07,0.0,0.0,0.0,1.21846967915e-07,0.0,0.0,0.0,1.21846967915e-07,-0.0547162778676,-1.42927145958,9.50511264801,9e-08,0.0,0.0,0.0,9e-08,0.0,0.0,0.0,9e-08
1438351932634013434,132221,1438351932634013434,fcu,0.0,0.0,0.0,0.0,-1.0,0.0,0.0,0.0,0.0,0.0,0.0,0.0,0.0,-0.0138147687539,-0.0303400158882,0.00856829341501,1.21846967915e-07,0.0,0.0,0.0,1.21846967915e-07,0.0,0.0,0.0,1.21846967915e-07,-0.05618500337,-1.41677033901,9.49544048309,9e-08,0.0,0.0,0.0,9e-08,0.0,0.0,0.0,9e-08
1438351932644198676,132222,1438351932644198676,fcu,0.0,0.0,0.0,0.0,-1.0,0.0,0.0,0.0,0.0,0.0,0.0,0.0,0.0,-0.0144876828417,-0.0312470793724,0.00880007538944,1.21846967915e-07,0.0,0.0,0.0,1.21846967915e-07,0.0,0.0,0.0,1.21846967915e-07,-0.0403202138841,-1.44104146957,9.4581155777,9e-08,0.0,0.0,0.0,9e-08,0.0,0.0,0.0,9e-08
1438351932654243854,132223,1438351932654243854,fcu,0.0,0.0,0.0,0.0,-1.0,0.0,0.0,0.0,0.0,0.0,0.0,0.0,0.0,-0.0143735585734,-0.0316299423575,0.00877038575709,1.21846967915e-07,0.0,0.0,0.0,1.21846967915e-07,0.0,0.0,0.0,1.21846967915e-07,-0.0544191375375,-1.43875873089,9.47451782227,9e-08,0.0,0.0,0.0,9e-08,0.0,0.0,0.0,9e-08
1438351932664492182,132224,1438351932664492182,fcu,0.0,0.0,0.0,0.0,-1.0,0.0,0.0,0.0,0.0,0.0,0.0,0.0,0.0,-0.0142497979105,-0.0306214746088,0.00964177306741,1.21846967915e-07,0.0,0.0,0.0,1.21846967915e-07,0.0,0.0,0.0,1.21846967915e-07,-0.0653429701924,-1.44510388374,9.49735736847,9e-08,0.0,0.0,0.0,9e-08,0.0,0.0,0.0,9e-08
1438351932676551409,132225,1438351932676551409,fcu,0.0,0.0,0.0,0.0,-1.0,0.0,0.0,0.0,0.0,0.0,0.0,0.0,0.0,-0.0141197368503,-0.0313342697918,0.00869060214609,1.21846967915e-07,0.0,0.0,0.0,1.21846967915e-07,0.0,0.0,0.0,1.21846967915e-07,-0.0375525765121,-1.43582344055,9.44540500641,9e-08,0.0,0.0,0.0,9e-08,0.0,0.0,0.0,9e-08
1438351932686707534,132226,1438351932686707534,fcu,0.0,0.0,0.0,0.0,-1.0,0.0,0.0,0.0,0.0,0.0,0.0,0.0,0.0,-0.0147743960842,-0.0315650701523,0.00881952699274,1.21846967915e-07,0.0,0.0,0.0,1.21846967915e-07,0.0,0.0,0.0,1.21846967915e-07,-0.03412463516,-1.43248176575,9.42692661285,9e-08,0.0,0.0,0.0,9e-08,0.0,0.0,0.0,9e-08
1438351932698612449,132227,1438351932698612449,fcu,0.0,0.0,0.0,0.0,-1.0,0.0,0.0,0.0,0.0,0.0,0.0,0.0,0.0,-0.0140617573634,-0.0307821817696,0.00973261520267,1.21846967915e-07,0.0,0.0,0.0,1.21846967915e-07,0.0,0.0,0.0,1.21846967915e-07,-0.0351489037275,-1.42732465267,9.46792984009,9e-08,0.0,0.0,0.0,9e-08,0.0,0.0,0.0,9e-08
1438351932708703834,132228,1438351932708703834,fcu,0.0,0.0,0.0,0.0,-1.0,0.0,0.0,0.0,0.0,0.0,0.0,0.0,0.0,-0.0135886184871,-0.0302201975137,0.00847225729376,1.21846967915e-07,0.0,0.0,0.0,1.21846967915e-07,0.0,0.0,0.0,1.21846967915e-07,-0.0503275990486,-1.44000017643,9.4557762146,9e-08,0.0,0.0,0.0,9e-08,0.0,0.0,0.0,9e-08
1438351932720641104,132229,1438351932720641104,fcu,0.0,0.0,0.0,0.0,-1.0,0.0,0.0,0.0,0.0,0.0,0.0,0.0,0.0,-0.0135663179681,-0.031055631116,0.00934190955013,1.21846967915e-07,0.0,0.0,0.0,1.21846967915e-07,0.0,0.0,0.0,1.21846967915e-07,-0.0610493309796,-1.42715251446,9.46471405029,9e-08,0.0,0.0,0.0,9e-08,0.0,0.0,0.0,9e-08
1438351932730878993,132230,1438351932730878993,fcu,0.0,0.0,0.0,0.0,-1.0,0.0,0.0,0.0,0.0,0.0,0.0,0.0,0.0,-0.013768075034,-0.0314587987959,0.00941182393581,1.21846967915e-07,0.0,0.0,0.0,1.21846967915e-07,0.0,0.0,0.0,1.21846967915e-07,-0.0638676285744,-1.42759644985,9.4773015976,9e-08,0.0,0.0,0.0,9e-08,0.0,0.0,0.0,9e-08
1438351932741023055,132231,1438351932741023055,fcu,0.0,0.0,0.0,0.0,-1.0,0.0,0.0,0.0,0.0,0.0,0.0,0.0,0.0,-0.0142280161381,-0.0299906842411,0.00973641593009,1.21846967915e-07,0.0,0.0,0.0,1.21846967915e-07,0.0,0.0,0.0,1.21846967915e-07,-0.0600339025259,-1.42295670509,9.47506332397,9e-08,0.0,0.0,0.0,9e-08,0.0,0.0,0.0,9e-08
1438351932753239470,132232,1438351932753239470,fcu,0.0,0.0,0.0,0.0,-1.0,0.0,0.0,0.0,0.0,0.0,0.0,0.0,0.0,-0.0141601758078,-0.0306140761822,0.00974287744612,1.21846967915e-07,0.0,0.0,0.0,1.21846967915e-07,0.0,0.0,0.0,1.21846967915e-07,-0.0562380887568,-1.42668056488,9.47400856018,9e-08,0.0,0.0,0.0,9e-08,0.0,0.0,0.0,9e-08
1438351932765163885,132233,1438351932765163885,fcu,0.0,0.0,0.0,0.0,-1.0,0.0,0.0,0.0,0.0,0.0,0.0,0.0,0.0,-0.013709358871,-0.0317061468959,0.00903461594135,1.21846967915e-07,0.0,0.0,0.0,1.21846967915e-07,0.0,0.0,0.0,1.21846967915e-07,-0.0364915989339,-1.42847537994,9.47420692444,9e-08,0.0,0.0,0.0,9e-08,0.0,0.0,0.0,9e-08
1438351932775249221,132234,1438351932775249221,fcu,0.0,0.0,0.0,0.0,-1.0,0.0,0.0,0.0,0.0,0.0,0.0,0.0,0.0,-0.0134918764234,-0.0316220074892,0.00873382389545,1.21846967915e-07,0.0,0.0,0.0,1.21846967915e-07,0.0,0.0,0.0,1.21846967915e-07,-0.0477778539062,-1.44605743885,9.44594860077,9e-08,0.0,0.0,0.0,9e-08,0.0,0.0,0.0,9e-08
1438351932787179645,132235,1438351932787179645,fcu,0.0,0.0,0.0,0.0,-1.0,0.0,0.0,0.0,0.0,0.0,0.0,0.0,0.0,-0.0133244963363,-0.0306389350444,0.00897540152073,1.21846967915e-07,0.0,0.0,0.0,1.21846967915e-07,0.0,0.0,0.0,1.21846967915e-07,-0.0548920892179,-1.43065428734,9.45207881927,9e-08,0.0,0.0,0.0,9e-08,0.0,0.0,0.0,9e-08
1438351932797401016,132236,1438351932797401016,fcu,0.0,0.0,0.0,0.0,-1.0,0.0,0.0,0.0,0.0,0.0,0.0,0.0,0.0,-0.0134630221874,-0.0305766519159,0.00917774345726,1.21846967915e-07,0.0,0.0,0.0,1.21846967915e-07,0.0,0.0,0.0,1.21846967915e-07,-0.0499605275691,-1.4291908741,9.47162723541,9e-08,0.0,0.0,0.0,9e-08,0.0,0.0,0.0,9e-08
1438351932809348835,132237,1438351932809348835,fcu,0.0,0.0,0.0,0.0,-1.0,0.0,0.0,0.0,0.0,0.0,0.0,0.0,0.0,-0.0126472162083,-0.0306891892105,0.00982236117125,1.21846967915e-07,0.0,0.0,0.0,1.21846967915e-07,0.0,0.0,0.0,1.21846967915e-07,-0.0291172042489,-1.42651748657,9.47476291656,9e-08,0.0,0.0,0.0,9e-08,0.0,0.0,0.0,9e-08
1438351932819902604,132238,1438351932819902604,fcu,0.0,0.0,0.0,0.0,-1.0,0.0,0.0,0.0,0.0,0.0,0.0,0.0,0.0,-0.0136186499149,-0.0307687409222,0.00928194634616,1.21846967915e-07,0.0,0.0,0.0,1.21846967915e-07,0.0,0.0,0.0,1.21846967915e-07,-0.03573057428,-1.4322347641,9.46320056915,9e-08,0.0,0.0,0.0,9e-08,0.0,0.0,0.0,9e-08
1438351932831602971,132239,1438351932831602971,fcu,0.0,0.0,0.0,0.0,-1.0,0.0,0.0,0.0,0.0,0.0,0.0,0.0,0.0,-0.0140513721853,-0.0307626780123,0.00831642560661,1.21846967915e-07,0.0,0.0,0.0,1.21846967915e-07,0.0,0.0,0.0,1.21846967915e-07,-0.0449746586382,-1.43280410767,9.47302627563,9e-08,0.0,0.0,0.0,9e-08,0.0,0.0,0.0,9e-08
1438351932841742332,132240,1438351932841742332,fcu,0.0,0.0,0.0,0.0,-1.0,0.0,0.0,0.0,0.0,0.0,0.0,0.0,0.0,-0.0133556742221,-0.0315606705844,0.00827676989138,1.21846967915e-07,0.0,0.0,0.0,1.21846967915e-07,0.0,0.0,0.0,1.21846967915e-07,-0.0570383742452,-1.42531394958,9.46687889099,9e-08,0.0,0.0,0.0,9e-08,0.0,0.0,0.0,9e-08
1438351932853622044,132241,1438351932853622044,fcu,0.0,0.0,0.0,0.0,-1.0,0.0,0.0,0.0,0.0,0.0,0.0,0.0,0.0,-0.014203986153,-0.030204962939,0.00895293708891,1.21846967915e-07,0.0,0.0,0.0,1.21846967915e-07,0.0,0.0,0.0,1.21846967915e-07,-0.045937590301,-1.42404401302,9.46887969971,9e-08,0.0,0.0,0.0,9e-08,0.0,0.0,0.0,9e-08
1438351932864158167,132242,1438351932864158167,fcu,0.0,0.0,0.0,0.0,-1.0,0.0,0.0,0.0,0.0,0.0,0.0,0.0,0.0,-0.0143943950534,-0.0305579360574,0.0089748473838,1.21846967915e-07,0.0,0.0,0.0,1.21846967915e-07,0.0,0.0,0.0,1.21846967915e-07,-0.0421776510775,-1.42518556118,9.50021648407,9e-08,0.0,0.0,0.0,9e-08,0.0,0.0,0.0,9e-08
1438351932875921430,132243,1438351932875921430,fcu,0.0,0.0,0.0,0.0,-1.0,0.0,0.0,0.0,0.0,0.0,0.0,0.0,0.0,-0.0139754377306,-0.030955998227,0.00916816480458,1.21846967915e-07,0.0,0.0,0.0,1.21846967915e-07,0.0,0.0,0.0,1.21846967915e-07,-0.0356178618968,-1.41763365269,9.4869852066,9e-08,0.0,0.0,0.0,9e-08,0.0,0.0,0.0,9e-08
1438351932886288397,132244,1438351932886288397,fcu,0.0,0.0,0.0,0.0,-1.0,0.0,0.0,0.0,0.0,0.0,0.0,0.0,0.0,-0.0132637973875,-0.0306067839265,0.00909988209605,1.21846967915e-07,0.0,0.0,0.0,1.21846967915e-07,0.0,0.0,0.0,1.21846967915e-07,-0.0664312019944,-1.41281831264,9.46531963348,9e-08,0.0,0.0,0.0,9e-08,0.0,0.0,0.0,9e-08
1438351932898001334,132245,1438351932898001334,fcu,0.0,0.0,0.0,0.0,-1.0,0.0,0.0,0.0,0.0,0.0,0.0,0.0,0.0,-0.0137424906716,-0.031240997836,0.00849151052535,1.21846967915e-07,0.0,0.0,0.0,1.21846967915e-07,0.0,0.0,0.0,1.21846967915e-07,-0.0587674751878,-1.4395250082,9.48759460449,9e-08,0.0,0.0,0.0,9e-08,0.0,0.0,0.0,9e-08
1438351932908436739,132246,1438351932908436739,fcu,0.0,0.0,0.0,0.0,-1.0,0.0,0.0,0.0,0.0,0.0,0.0,0.0,0.0,-0.0137791158631,-0.0303852427751,0.00919563136995,1.21846967915e-07,0.0,0.0,0.0,1.21846967915e-07,0.0,0.0,0.0,1.21846967915e-07,-0.0361773110926,-1.42576885223,9.46365070343,9e-08,0.0,0.0,0.0,9e-08,0.0,0.0,0.0,9e-08
1438351932920161107,132247,1438351932920161107,fcu,0.0,0.0,0.0,0.0,-1.0,0.0,0.0,0.0,0.0,0.0,0.0,0.0,0.0,-0.0142666269094,-0.0295480228961,0.00858024507761,1.21846967915e-07,0.0,0.0,0.0,1.21846967915e-07,0.0,0.0,0.0,1.21846967915e-07,-0.0467155016959,-1.42134988308,9.44871616364,9e-08,0.0,0.0,0.0,9e-08,0.0,0.0,0.0,9e-08
1438351932930362261,132248,1438351932930362261,fcu,0.0,0.0,0.0,0.0,-1.0,0.0,0.0,0.0,0.0,0.0,0.0,0.0,0.0,-0.0142236305401,-0.0301032792777,0.00890609622002,1.21846967915e-07,0.0,0.0,0.0,1.21846967915e-07,0.0,0.0,0.0,1.21846967915e-07,-0.0467600561678,-1.43383979797,9.44085693359,9e-08,0.0,0.0,0.0,9e-08,0.0,0.0,0.0,9e-08
1438351932940460522,132249,1438351932940460522,fcu,0.0,0.0,0.0,0.0,-1.0,0.0,0.0,0.0,0.0,0.0,0.0,0.0,0.0,-0.0143068972975,-0.0294841080904,0.00911188405007,1.21846967915e-07,0.0,0.0,0.0,1.21846967915e-07,0.0,0.0,0.0,1.21846967915e-07,-0.0436325483024,-1.44428300858,9.45428371429,9e-08,0.0,0.0,0.0,9e-08,0.0,0.0,0.0,9e-08
1438351932952598907,132250,1438351932952598907,fcu,0.0,0.0,0.0,0.0,-1.0,0.0,0.0,0.0,0.0,0.0,0.0,0.0,0.0,-0.0137224309146,-0.0297314114869,0.00880931504071,1.21846967915e-07,0.0,0.0,0.0,1.21846967915e-07,0.0,0.0,0.0,1.21846967915e-07,-0.0579394623637,-1.43643116951,9.49156951904,9e-08,0.0,0.0,0.0,9e-08,0.0,0.0,0.0,9e-08
1438351932964444685,132251,1438351932964444685,fcu,0.0,0.0,0.0,0.0,-1.0,0.0,0.0,0.0,0.0,0.0,0.0,0.0,0.0,-0.0138062890619,-0.0298971030861,0.00912672933191,1.21846967915e-07,0.0,0.0,0.0,1.21846967915e-07,0.0,0.0,0.0,1.21846967915e-07,-0.0495060570538,-1.42330086231,9.4631357193,9e-08,0.0,0.0,0.0,9e-08,0.0,0.0,0.0,9e-08
1438351932974738052,132252,1438351932974738052,fcu,0.0,0.0,0.0,0.0,-1.0,0.0,0.0,0.0,0.0,0.0,0.0,0.0,0.0,-0.0140503849834,-0.0304062217474,0.00914306938648,1.21846967915e-07,0.0,0.0,0.0,1.21846967915e-07,0.0,0.0,0.0,1.21846967915e-07,-0.0537338852882,-1.44066226482,9.46931648254,9e-08,0.0,0.0,0.0,9e-08,0.0,0.0,0.0,9e-08
1438351932984777948,132253,1438351932984777948,fcu,0.0,0.0,0.0,0.0,-1.0,0.0,0.0,0.0,0.0,0.0,0.0,0.0,0.0,-0.0139060234651,-0.0304116886109,0.0090500805527,1.21846967915e-07,0.0,0.0,0.0,1.21846967915e-07,0.0,0.0,0.0,1.21846967915e-07,-0.0528887137771,-1.45054495335,9.47727966309,9e-08,0.0,0.0,0.0,9e-08,0.0,0.0,0.0,9e-08
1438351932996840648,132254,1438351932996840648,fcu,0.0,0.0,0.0,0.0,-1.0,0.0,0.0,0.0,0.0,0.0,0.0,0.0,0.0,-0.0140376584604,-0.0309427101165,0.00852451659739,1.21846967915e-07,0.0,0.0,0.0,1.21846967915e-07,0.0,0.0,0.0,1.21846967915e-07,-0.045168209821,-1.44011962414,9.46086406708,9e-08,0.0,0.0,0.0,9e-08,0.0,0.0,0.0,9e-08
1438351933006797066,132255,1438351933006797066,fcu,0.0,0.0,0.0,0.0,-1.0,0.0,0.0,0.0,0.0,0.0,0.0,0.0,0.0,-0.0141091058031,-0.0309176724404,0.00847425684333,1.21846967915e-07,0.0,0.0,0.0,1.21846967915e-07,0.0,0.0,0.0,1.21846967915e-07,-0.0272243022919,-1.43705201149,9.46420860291,9e-08,0.0,0.0,0.0,9e-08,0.0,0.0,0.0,9e-08
1438351933019028095,132256,1438351933019028095,fcu,0.0,0.0,0.0,0.0,-1.0,0.0,0.0,0.0,0.0,0.0,0.0,0.0,0.0,-0.0142265018076,-0.0307150110602,0.00889394618571,1.21846967915e-07,0.0,0.0,0.0,1.21846967915e-07,0.0,0.0,0.0,1.21846967915e-07,-0.0421219840646,-1.4410289526,9.44389915466,9e-08,0.0,0.0,0.0,9e-08,0.0,0.0,0.0,9e-08
1438351933030964583,132257,1438351933030964583,fcu,0.0,0.0,0.0,0.0,-1.0,0.0,0.0,0.0,0.0,0.0,0.0,0.0,0.0,-0.0137215135619,-0.0308642368764,0.00936049595475,1.21846967915e-07,0.0,0.0,0.0,1.21846967915e-07,0.0,0.0,0.0,1.21846967915e-07,-0.0460677631199,-1.44225025177,9.4957408905,9e-08,0.0,0.0,0.0,9e-08,0.0,0.0,0.0,9e-08
1438351933041244574,132258,1438351933041244574,fcu,0.0,0.0,0.0,0.0,-1.0,0.0,0.0,0.0,0.0,0.0,0.0,0.0,0.0,-0.0147956842557,-0.0303940996528,0.00887100957334,1.21846967915e-07,0.0,0.0,0.0,1.21846967915e-07,0.0,0.0,0.0,1.21846967915e-07,-0.0434171929955,-1.44321084023,9.45664024353,9e-08,0.0,0.0,0.0,9e-08,0.0,0.0,0.0,9e-08
1438351933053062784,132259,1438351933053062784,fcu,0.0,0.0,0.0,0.0,-1.0,0.0,0.0,0.0,0.0,0.0,0.0,0.0,0.0,-0.0139647517353,-0.0299664977938,0.00894220080227,1.21846967915e-07,0.0,0.0,0.0,1.21846967915e-07,0.0,0.0,0.0,1.21846967915e-07,-0.0401037931442,-1.43637299538,9.4650888443,9e-08,0.0,0.0,0.0,9e-08,0.0,0.0,0.0,9e-08
1438351933063244418,132260,1438351933063244418,fcu,0.0,0.0,0.0,0.0,-1.0,0.0,0.0,0.0,0.0,0.0,0.0,0.0,0.0,-0.0145325176418,-0.0310555528849,0.00839041639119,1.21846967915e-07,0.0,0.0,0.0,1.21846967915e-07,0.0,0.0,0.0,1.21846967915e-07,-0.0395815968513,-1.43376195431,9.4780254364,9e-08,0.0,0.0,0.0,9e-08,0.0,0.0,0.0,9e-08
1438351933075210454,132261,1438351933075210454,fcu,0.0,0.0,0.0,0.0,-1.0,0.0,0.0,0.0,0.0,0.0,0.0,0.0,0.0,-0.0147443758324,-0.0310270898044,0.00856170244515,1.21846967915e-07,0.0,0.0,0.0,1.21846967915e-07,0.0,0.0,0.0,1.21846967915e-07,-0.0411837399006,-1.42449343204,9.45405387878,9e-08,0.0,0.0,0.0,9e-08,0.0,0.0,0.0,9e-08
1438351933085546254,132262,1438351933085546254,fcu,0.0,0.0,0.0,0.0,-1.0,0.0,0.0,0.0,0.0,0.0,0.0,0.0,0.0,-0.0146243507043,-0.0311451647431,0.00900071300566,1.21846967915e-07,0.0,0.0,0.0,1.21846967915e-07,0.0,0.0,0.0,1.21846967915e-07,-0.0454481877387,-1.42314529419,9.47614860535,9e-08,0.0,0.0,0.0,9e-08,0.0,0.0,0.0,9e-08
1438351933097386575,132263,1438351933097386575,fcu,0.0,0.0,0.0,0.0,-1.0,0.0,0.0,0.0,0.0,0.0,0.0,0.0,0.0,-0.0137618863955,-0.0311619974673,0.00808678101748,1.21846967915e-07,0.0,0.0,0.0,1.21846967915e-07,0.0,0.0,0.0,1.21846967915e-07,-0.0646416991949,-1.42953205109,9.46888923645,9e-08,0.0,0.0,0.0,9e-08,0.0,0.0,0.0,9e-08
1438351933107669077,132264,1438351933107669077,fcu,0.0,0.0,0.0,0.0,-1.0,0.0,0.0,0.0,0.0,0.0,0.0,0.0,0.0,-0.01381545607,-0.0306966379285,0.00826008431613,1.21846967915e-07,0.0,0.0,0.0,1.21846967915e-07,0.0,0.0,0.0,1.21846967915e-07,-0.056687425822,-1.43768763542,9.44779682159,9e-08,0.0,0.0,0.0,9e-08,0.0,0.0,0.0,9e-08
1438351933119459874,132265,1438351933119459874,fcu,0.0,0.0,0.0,0.0,-1.0,0.0,0.0,0.0,0.0,0.0,0.0,0.0,0.0,-0.0145221725106,-0.0301401782781,0.00857799034566,1.21846967915e-07,0.0,0.0,0.0,1.21846967915e-07,0.0,0.0,0.0,1.21846967915e-07,-0.0444064997137,-1.42960441113,9.4248380661,9e-08,0.0,0.0,0.0,9e-08,0.0,0.0,0.0,9e-08
1438351933129835886,132266,1438351933129835886,fcu,0.0,0.0,0.0,0.0,-1.0,0.0,0.0,0.0,0.0,0.0,0.0,0.0,0.0,-0.0132702598348,-0.0302711389959,0.00829900056124,1.21846967915e-07,0.0,0.0,0.0,1.21846967915e-07,0.0,0.0,0.0,1.21846967915e-07,-0.0540000014007,-1.44322729111,9.44075489044,9e-08,0.0,0.0,0.0,9e-08,0.0,0.0,0.0,9e-08
1438351933141655785,132267,1438351933141655785,fcu,0.0,0.0,0.0,0.0,-1.0,0.0,0.0,0.0,0.0,0.0,0.0,0.0,0.0,-0.0140881510451,-0.0303435828537,0.00868535786867,1.21846967915e-07,0.0,0.0,0.0,1.21846967915e-07,0.0,0.0,0.0,1.21846967915e-07,-0.0541254468262,-1.43611085415,9.462059021,9e-08,0.0,0.0,0.0,9e-08,0.0,0.0,0.0,9e-08
1438351933151904113,132268,1438351933151904113,fcu,0.0,0.0,0.0,0.0,-1.0,0.0,0.0,0.0,0.0,0.0,0.0,0.0,0.0,-0.0140817398205,-0.030542049557,0.00899635255337,1.21846967915e-07,0.0,0.0,0.0,1.21846967915e-07,0.0,0.0,0.0,1.21846967915e-07,-0.0466487109661,-1.43278574944,9.45330142975,9e-08,0.0,0.0,0.0,9e-08,0.0,0.0,0.0,9e-08
1438351933163805235,132269,1438351933163805235,fcu,0.0,0.0,0.0,0.0,-1.0,0.0,0.0,0.0,0.0,0.0,0.0,0.0,0.0,-0.0128131490201,-0.0306663196534,0.00930559635162,1.21846967915e-07,0.0,0.0,0.0,1.21846967915e-07,0.0,0.0,0.0,1.21846967915e-07,-0.0405359864235,-1.42597794533,9.48343372345,9e-08,0.0,0.0,0.0,9e-08,0.0,0.0,0.0,9e-08
1438351933174061220,132270,1438351933174061220,fcu,0.0,0.0,0.0,0.0,-1.0,0.0,0.0,0.0,0.0,0.0,0.0,0.0,0.0,-0.0134324515238,-0.03068918176,0.00973825156689,1.21846967915e-07,0.0,0.0,0.0,1.21846967915e-07,0.0,0.0,0.0,1.21846967915e-07,-0.0520578213036,-1.42233884335,9.48488903046,9e-08,0.0,0.0,0.0,9e-08,0.0,0.0,0.0,9e-08
1438351933185925496,132271,1438351933185925496,fcu,0.0,0.0,0.0,0.0,-1.0,0.0,0.0,0.0,0.0,0.0,0.0,0.0,0.0,-0.0143766114488,-0.0315270237625,0.00945530738682,1.21846967915e-07,0.0,0.0,0.0,1.21846967915e-07,0.0,0.0,0.0,1.21846967915e-07,-0.0372075103223,-1.4471449852,9.44170665741,9e-08,0.0,0.0,0.0,9e-08,0.0,0.0,0.0,9e-08
1438351933196306796,132272,1438351933196306796,fcu,0.0,0.0,0.0,0.0,-1.0,0.0,0.0,0.0,0.0,0.0,0.0,0.0,0.0,-0.0139897046611,-0.030799312517,0.00868227984756,1.21846967915e-07,0.0,0.0,0.0,1.21846967915e-07,0.0,0.0,0.0,1.21846967915e-07,-0.0308383535594,-1.44851374626,9.46003341675,9e-08,0.0,0.0,0.0,9e-08,0.0,0.0,0.0,9e-08
1438351933208160423,132273,1438351933208160423,fcu,0.0,0.0,0.0,0.0,-1.0,0.0,0.0,0.0,0.0,0.0,0.0,0.0,0.0,-0.0132758505642,-0.0300656966865,0.00805968325585,1.21846967915e-07,0.0,0.0,0.0,1.21846967915e-07,0.0,0.0,0.0,1.21846967915e-07,-0.0284862443805,-1.4328584671,9.45665073395,9e-08,0.0,0.0,0.0,9e-08,0.0,0.0,0.0,9e-08
1438351933218690692,132274,1438351933218690692,fcu,0.0,0.0,0.0,0.0,-1.0,0.0,0.0,0.0,0.0,0.0,0.0,0.0,0.0,-0.0138904098421,-0.0305761769414,0.00876014214009,1.21846967915e-07,0.0,0.0,0.0,1.21846967915e-07,0.0,0.0,0.0,1.21846967915e-07,-0.0695376321673,-1.44467890263,9.46053314209,9e-08,0.0,0.0,0.0,9e-08,0.0,0.0,0.0,9e-08
1438351933230372437,132275,1438351933230372437,fcu,0.0,0.0,0.0,0.0,-1.0,0.0,0.0,0.0,0.0,0.0,0.0,0.0,0.0,-0.0140434019268,-0.0307186879218,0.00929324142635,1.21846967915e-07,0.0,0.0,0.0,1.21846967915e-07,0.0,0.0,0.0,1.21846967915e-07,-0.0562006607652,-1.43649828434,9.46953678131,9e-08,0.0,0.0,0.0,9e-08,0.0,0.0,0.0,9e-08
1438351933240534230,132276,1438351933240534230,fcu,0.0,0.0,0.0,0.0,-1.0,0.0,0.0,0.0,0.0,0.0,0.0,0.0,0.0,-0.0138848610222,-0.0308922398835,0.00927111320198,1.21846967915e-07,0.0,0.0,0.0,1.21846967915e-07,0.0,0.0,0.0,1.21846967915e-07,-0.0572480410337,-1.43020200729,9.44590473175,9e-08,0.0,0.0,0.0,9e-08,0.0,0.0,0.0,9e-08
1438351933252448086,132277,1438351933252448086,fcu,0.0,0.0,0.0,0.0,-1.0,0.0,0.0,0.0,0.0,0.0,0.0,0.0,0.0,-0.014666588977,-0.030487312004,0.00906609743834,1.21846967915e-07,0.0,0.0,0.0,1.21846967915e-07,0.0,0.0,0.0,1.21846967915e-07,-0.0546156354249,-1.44735145569,9.45609760284,9e-08,0.0,0.0,0.0,9e-08,0.0,0.0,0.0,9e-08
1438351933262738882,132278,1438351933262738882,fcu,0.0,0.0,0.0,0.0,-1.0,0.0,0.0,0.0,0.0,0.0,0.0,0.0,0.0,-0.0147627163678,-0.0303928162903,0.00929373595864,1.21846967915e-07,0.0,0.0,0.0,1.21846967915e-07,0.0,0.0,0.0,1.21846967915e-07,-0.0646414980292,-1.43356370926,9.4588098526,9e-08,0.0,0.0,0.0,9e-08,0.0,0.0,0.0,9e-08
1438351933274661999,132279,1438351933274661999,fcu,0.0,0.0,0.0,0.0,-1.0,0.0,0.0,0.0,0.0,0.0,0.0,0.0,0.0,-0.0151570346206,-0.0312501378357,0.00962125416845,1.21846967915e-07,0.0,0.0,0.0,1.21846967915e-07,0.0,0.0,0.0,1.21846967915e-07,-0.0401019863784,-1.42278194427,9.47563457489,9e-08,0.0,0.0,0.0,9e-08,0.0,0.0,0.0,9e-08
1438351933285221771,132280,1438351933285221771,fcu,0.0,0.0,0.0,0.0,-1.0,0.0,0.0,0.0,0.0,0.0,0.0,0.0,0.0,-0.0141877792776,-0.0307627972215,0.00890302844346,1.21846967915e-07,0.0,0.0,0.0,1.21846967915e-07,0.0,0.0,0.0,1.21846967915e-07,-0.0508380532265,-1.40899658203,9.47865104675,9e-08,0.0,0.0,0.0,9e-08,0.0,0.0,0.0,9e-08
1438351933296909340,132281,1438351933296909340,fcu,0.0,0.0,0.0,0.0,-1.0,0.0,0.0,0.0,0.0,0.0,0.0,0.0,0.0,-0.014845835045,-0.0307202767581,0.00964513979852,1.21846967915e-07,0.0,0.0,0.0,1.21846967915e-07,0.0,0.0,0.0,1.21846967915e-07,-0.0516000799835,-1.42446899414,9.4590177536,9e-08,0.0,0.0,0.0,9e-08,0.0,0.0,0.0,9e-08
1438351933307023387,132282,1438351933307023387,fcu,0.0,0.0,0.0,0.0,-1.0,0.0,0.0,0.0,0.0,0.0,0.0,0.0,0.0,-0.0140288695693,-0.031260099262,0.00984736252576,1.21846967915e-07,0.0,0.0,0.0,1.21846967915e-07,0.0,0.0,0.0,1.21846967915e-07,-0.0506494194269,-1.4318728447,9.45675373077,9e-08,0.0,0.0,0.0,9e-08,0.0,0.0,0.0,9e-08
1438351933318896474,132283,1438351933318896474,fcu,0.0,0.0,0.0,0.0,-1.0,0.0,0.0,0.0,0.0,0.0,0.0,0.0,0.0,-0.0138869639486,-0.0311697795987,0.00937168952078,1.21846967915e-07,0.0,0.0,0.0,1.21846967915e-07,0.0,0.0,0.0,1.21846967915e-07,-0.0275462977588,-1.43507695198,9.45779037476,9e-08,0.0,0.0,0.0,9e-08,0.0,0.0,0.0,9e-08
1438351933329243936,132284,1438351933329243936,fcu,0.0,0.0,0.0,0.0,-1.0,0.0,0.0,0.0,0.0,0.0,0.0,0.0,0.0,-0.0139043908566,-0.0309681277722,0.00902373623103,1.21846967915e-07,0.0,0.0,0.0,1.21846967915e-07,0.0,0.0,0.0,1.21846967915e-07,-0.0438774041831,-1.43283748627,9.46644020081,9e-08,0.0,0.0,0.0,9e-08,0.0,0.0,0.0,9e-08
1438351933341090661,132285,1438351933341090661,fcu,0.0,0.0,0.0,0.0,-1.0,0.0,0.0,0.0,0.0,0.0,0.0,0.0,0.0,-0.0136431921273,-0.0307451318949,0.00874666497111,1.21846967915e-07,0.0,0.0,0.0,1.21846967915e-07,0.0,0.0,0.0,1.21846967915e-07,-0.0446792952716,-1.42678487301,9.45112323761,9e-08,0.0,0.0,0.0,9e-08,0.0,0.0,0.0,9e-08
1438351933351448763,132286,1438351933351448763,fcu,0.0,0.0,0.0,0.0,-1.0,0.0,0.0,0.0,0.0,0.0,0.0,0.0,0.0,-0.0137438699603,-0.0309340208769,0.00926539860666,1.21846967915e-07,0.0,0.0,0.0,1.21846967915e-07,0.0,0.0,0.0,1.21846967915e-07,-0.0517754293978,-1.434851408,9.46292495728,9e-08,0.0,0.0,0.0,9e-08,0.0,0.0,0.0,9e-08
1438351933363310789,132287,1438351933363310789,fcu,0.0,0.0,0.0,0.0,-1.0,0.0,0.0,0.0,0.0,0.0,0.0,0.0,0.0,-0.0137254502624,-0.0305776465684,0.00930879916996,1.21846967915e-07,0.0,0.0,0.0,1.21846967915e-07,0.0,0.0,0.0,1.21846967915e-07,-0.0611543953419,-1.43731236458,9.45682048798,9e-08,0.0,0.0,0.0,9e-08,0.0,0.0,0.0,9e-08
1438351933373399323,132288,1438351933373399323,fcu,0.0,0.0,0.0,0.0,-1.0,0.0,0.0,0.0,0.0,0.0,0.0,0.0,0.0,-0.0138405635953,-0.0302511192858,0.00915270019323,1.21846967915e-07,0.0,0.0,0.0,1.21846967915e-07,0.0,0.0,0.0,1.21846967915e-07,-0.0450855903327,-1.44892883301,9.47340774536,9e-08,0.0,0.0,0.0,9e-08,0.0,0.0,0.0,9e-08
1438351933385370140,132289,1438351933385370140,fcu,0.0,0.0,0.0,0.0,-1.0,0.0,0.0,0.0,0.0,0.0,0.0,0.0,0.0,-0.0144908474758,-0.031110310927,0.00955145340413,1.21846967915e-07,0.0,0.0,0.0,1.21846967915e-07,0.0,0.0,0.0,1.21846967915e-07,-0.0497061647475,-1.44964063168,9.46532058716,9e-08,0.0,0.0,0.0,9e-08,0.0,0.0,0.0,9e-08
1438351933395904103,132290,1438351933395904103,fcu,0.0,0.0,0.0,0.0,-1.0,0.0,0.0,0.0,0.0,0.0,0.0,0.0,0.0,-0.0141836255789,-0.0314772427082,0.010032441467,1.21846967915e-07,0.0,0.0,0.0,1.21846967915e-07,0.0,0.0,0.0,1.21846967915e-07,-0.0626056194305,-1.45283949375,9.44118404388,9e-08,0.0,0.0,0.0,9e-08,0.0,0.0,0.0,9e-08
1438351933407522130,132291,1438351933407522130,fcu,0.0,0.0,0.0,0.0,-1.0,0.0,0.0,0.0,0.0,0.0,0.0,0.0,0.0,-0.0141051635146,-0.0306284669787,0.0095537211746,1.21846967915e-07,0.0,0.0,0.0,1.21846967915e-07,0.0,0.0,0.0,1.21846967915e-07,-0.0432872734964,-1.44218552113,9.46879768372,9e-08,0.0,0.0,0.0,9e-08,0.0,0.0,0.0,9e-08
1438351933417871156,132292,1438351933417871156,fcu,0.0,0.0,0.0,0.0,-1.0,0.0,0.0,0.0,0.0,0.0,0.0,0.0,0.0,-0.0138597469777,-0.0300578474998,0.00921237841249,1.21846967915e-07,0.0,0.0,0.0,1.21846967915e-07,0.0,0.0,0.0,1.21846967915e-07,-0.0503965914249,-1.43114626408,9.48346233368,9e-08,0.0,0.0,0.0,9e-08,0.0,0.0,0.0,9e-08
1438351933429829003,132293,1438351933429829003,fcu,0.0,0.0,0.0,0.0,-1.0,0.0,0.0,0.0,0.0,0.0,0.0,0.0,0.0,-0.0139700509608,-0.0297662746161,0.00889023859054,1.21846967915e-07,0.0,0.0,0.0,1.21846967915e-07,0.0,0.0,0.0,1.21846967915e-07,-0.0424577668309,-1.45010578632,9.44863796234,9e-08,0.0,0.0,0.0,9e-08,0.0,0.0,0.0,9e-08
1438351933439899044,132294,1438351933439899044,fcu,0.0,0.0,0.0,0.0,-1.0,0.0,0.0,0.0,0.0,0.0,0.0,0.0,0.0,-0.014313285239,-0.0301456935704,0.00902683567256,1.21846967915e-07,0.0,0.0,0.0,1.21846967915e-07,0.0,0.0,0.0,1.21846967915e-07,-0.0325521677732,-1.43437826633,9.45283603668,9e-08,0.0,0.0,0.0,9e-08,0.0,0.0,0.0,9e-08
1438351933449874056,132295,1438351933449874056,fcu,0.0,0.0,0.0,0.0,-1.0,0.0,0.0,0.0,0.0,0.0,0.0,0.0,0.0,-0.0143556660041,-0.0305377356708,0.00870411004871,1.21846967915e-07,0.0,0.0,0.0,1.21846967915e-07,0.0,0.0,0.0,1.21846967915e-07,-0.0494899787009,-1.42195725441,9.47300052643,9e-08,0.0,0.0,0.0,9e-08,0.0,0.0,0.0,9e-08
1438351933459965095,132296,1438351933459965095,fcu,0.0,0.0,0.0,0.0,-1.0,0.0,0.0,0.0,0.0,0.0,0.0,0.0,0.0,-0.014335796237,-0.031112274155,0.00884320680052,1.21846967915e-07,0.0,0.0,0.0,1.21846967915e-07,0.0,0.0,0.0,1.21846967915e-07,-0.0424595102668,-1.42540121078,9.46211910248,9e-08,0.0,0.0,0.0,9e-08,0.0,0.0,0.0,9e-08
1438351933470034374,132297,1438351933470034374,fcu,0.0,0.0,0.0,0.0,-1.0,0.0,0.0,0.0,0.0,0.0,0.0,0.0,0.0,-0.014740887098,-0.0309333242476,0.00836352724582,1.21846967915e-07,0.0,0.0,0.0,1.21846967915e-07,0.0,0.0,0.0,1.21846967915e-07,-0.0524329803884,-1.43550395966,9.47212409973,9e-08,0.0,0.0,0.0,9e-08,0.0,0.0,0.0,9e-08
1438351933480165692,132298,1438351933480165692,fcu,0.0,0.0,0.0,0.0,-1.0,0.0,0.0,0.0,0.0,0.0,0.0,0.0,0.0,-0.0148699497804,-0.0309870913625,0.00897561758757,1.21846967915e-07,0.0,0.0,0.0,1.21846967915e-07,0.0,0.0,0.0,1.21846967915e-07,-0.0458024926484,-1.4191031456,9.49010372162,9e-08,0.0,0.0,0.0,9e-08,0.0,0.0,0.0,9e-08
1438351933490242754,132299,1438351933490242754,fcu,0.0,0.0,0.0,0.0,-1.0,0.0,0.0,0.0,0.0,0.0,0.0,0.0,0.0,-0.0142352236435,-0.0316311307251,0.00868264213204,1.21846967915e-07,0.0,0.0,0.0,1.21846967915e-07,0.0,0.0,0.0,1.21846967915e-07,-0.0423580631614,-1.41599977016,9.47395420074,9e-08,0.0,0.0,0.0,9e-08,0.0,0.0,0.0,9e-08
1438351933500300777,132300,1438351933500300777,fcu,0.0,0.0,0.0,0.0,-1.0,0.0,0.0,0.0,0.0,0.0,0.0,0.0,0.0,-0.014351435937,-0.0312384441495,0.00894486065954,1.21846967915e-07,0.0,0.0,0.0,1.21846967915e-07,0.0,0.0,0.0,1.21846967915e-07,-0.0374427251518,-1.42006921768,9.46671104431,9e-08,0.0,0.0,0.0,9e-08,0.0,0.0,0.0,9e-08
1438351933510316122,132301,1438351933510316122,fcu,0.0,0.0,0.0,0.0,-1.0,0.0,0.0,0.0,0.0,0.0,0.0,0.0,0.0,-0.0144695853814,-0.0310719832778,0.00966875907034,1.21846967915e-07,0.0,0.0,0.0,1.21846967915e-07,0.0,0.0,0.0,1.21846967915e-07,-0.0455037094653,-1.43507313728,9.44979667664,9e-08,0.0,0.0,0.0,9e-08,0.0,0.0,0.0,9e-08
1438351933520417009,132302,1438351933520417009,fcu,0.0,0.0,0.0,0.0,-1.0,0.0,0.0,0.0,0.0,0.0,0.0,0.0,0.0,-0.0149277737364,-0.0307780392468,0.00995117239654,1.21846967915e-07,0.0,0.0,0.0,1.21846967915e-07,0.0,0.0,0.0,1.21846967915e-07,-0.0438912510872,-1.43803811073,9.46979045868,9e-08,0.0,0.0,0.0,9e-08,0.0,0.0,0.0,9e-08
1438351933530539456,132303,1438351933530539456,fcu,0.0,0.0,0.0,0.0,-1.0,0.0,0.0,0.0,0.0,0.0,0.0,0.0,0.0,-0.0137420045212,-0.0306180231273,0.00906015560031,1.21846967915e-07,0.0,0.0,0.0,1.21846967915e-07,0.0,0.0,0.0,1.21846967915e-07,-0.0415983423591,-1.43179094791,9.47336673737,9e-08,0.0,0.0,0.0,9e-08,0.0,0.0,0.0,9e-08
1438351933540520346,132304,1438351933540520346,fcu,0.0,0.0,0.0,0.0,-1.0,0.0,0.0,0.0,0.0,0.0,0.0,0.0,0.0,-0.0136898253113,-0.0310243144631,0.00935519207269,1.21846967915e-07,0.0,0.0,0.0,1.21846967915e-07,0.0,0.0,0.0,1.21846967915e-07,-0.0504118390381,-1.43463039398,9.45514297485,9e-08,0.0,0.0,0.0,9e-08,0.0,0.0,0.0,9e-08
1438351933550854331,132305,1438351933550854331,fcu,0.0,0.0,0.0,0.0,-1.0,0.0,0.0,0.0,0.0,0.0,0.0,0.0,0.0,-0.0137321520597,-0.0312790125608,0.00953319016844,1.21846967915e-07,0.0,0.0,0.0,1.21846967915e-07,0.0,0.0,0.0,1.21846967915e-07,-0.0436401516199,-1.43387567997,9.46373558044,9e-08,0.0,0.0,0.0,9e-08,0.0,0.0,0.0,9e-08
1438351933562730550,132306,1438351933562730550,fcu,0.0,0.0,0.0,0.0,-1.0,0.0,0.0,0.0,0.0,0.0,0.0,0.0,0.0,-0.013385293074,-0.0302907712758,0.00932009983808,1.21846967915e-07,0.0,0.0,0.0,1.21846967915e-07,0.0,0.0,0.0,1.21846967915e-07,-0.0385294929147,-1.41849446297,9.48696708679,9e-08,0.0,0.0,0.0,9e-08,0.0,0.0,0.0,9e-08
1438351933573064892,132307,1438351933573064892,fcu,0.0,0.0,0.0,0.0,-1.0,0.0,0.0,0.0,0.0,0.0,0.0,0.0,0.0,-0.0140361972153,-0.0303262881935,0.0103803342208,1.21846967915e-07,0.0,0.0,0.0,1.21846967915e-07,0.0,0.0,0.0,1.21846967915e-07,-0.0479588620365,-1.41482806206,9.49059867859,9e-08,0.0,0.0,0.0,9e-08,0.0,0.0,0.0,9e-08
1438351933584840759,132308,1438351933584840759,fcu,0.0,0.0,0.0,0.0,-1.0,0.0,0.0,0.0,0.0,0.0,0.0,0.0,0.0,-0.0136458007619,-0.0307623352855,0.0106846960261,1.21846967915e-07,0.0,0.0,0.0,1.21846967915e-07,0.0,0.0,0.0,1.21846967915e-07,-0.0572121441364,-1.4351401329,9.47660446167,9e-08,0.0,0.0,0.0,9e-08,0.0,0.0,0.0,9e-08
1438351933595025350,132309,1438351933595025350,fcu,0.0,0.0,0.0,0.0,-1.0,0.0,0.0,0.0,0.0,0.0,0.0,0.0,0.0,-0.0138257527724,-0.0307218190283,0.00905514042825,1.21846967915e-07,0.0,0.0,0.0,1.21846967915e-07,0.0,0.0,0.0,1.21846967915e-07,-0.0515885688365,-1.43624699116,9.45617675781,9e-08,0.0,0.0,0.0,9e-08,0.0,0.0,0.0,9e-08
1438351933605231761,132310,1438351933605231761,fcu,0.0,0.0,0.0,0.0,-1.0,0.0,0.0,0.0,0.0,0.0,0.0,0.0,0.0,-0.0136593403295,-0.0308293104172,0.00845601037145,1.21846967915e-07,0.0,0.0,0.0,1.21846967915e-07,0.0,0.0,0.0,1.21846967915e-07,-0.0500523746014,-1.43337881565,9.44830322266,9e-08,0.0,0.0,0.0,9e-08,0.0,0.0,0.0,9e-08
1438351933617328825,132311,1438351933617328825,fcu,0.0,0.0,0.0,0.0,-1.0,0.0,0.0,0.0,0.0,0.0,0.0,0.0,0.0,-0.0142093384638,-0.0309575553983,0.00910139735788,1.21846967915e-07,0.0,0.0,0.0,1.21846967915e-07,0.0,0.0,0.0,1.21846967915e-07,-0.0544907338917,-1.44948744774,9.47649288177,9e-08,0.0,0.0,0.0,9e-08,0.0,0.0,0.0,9e-08
1438351933629234878,132312,1438351933629234878,fcu,0.0,0.0,0.0,0.0,-1.0,0.0,0.0,0.0,0.0,0.0,0.0,0.0,0.0,-0.014218268916,-0.0301871672273,0.00922879297286,1.21846967915e-07,0.0,0.0,0.0,1.21846967915e-07,0.0,0.0,0.0,1.21846967915e-07,-0.0327991805971,-1.44533109665,9.46019744873,9e-08,0.0,0.0,0.0,9e-08,0.0,0.0,0.0,9e-08
1438351933639301506,132313,1438351933639301506,fcu,0.0,0.0,0.0,0.0,-1.0,0.0,0.0,0.0,0.0,0.0,0.0,0.0,0.0,-0.0143994875252,-0.0304905995727,0.00917711295187,1.21846967915e-07,0.0,0.0,0.0,1.21846967915e-07,0.0,0.0,0.0,1.21846967915e-07,-0.0320554710925,-1.41442203522,9.45093154907,9e-08,0.0,0.0,0.0,9e-08,0.0,0.0,0.0,9e-08
1438351933651310361,132314,1438351933651310361,fcu,0.0,0.0,0.0,0.0,-1.0,0.0,0.0,0.0,0.0,0.0,0.0,0.0,0.0,-0.0143333785236,-0.031451780349,0.00905279908329,1.21846967915e-07,0.0,0.0,0.0,1.21846967915e-07,0.0,0.0,0.0,1.21846967915e-07,-0.0415373928845,-1.40647816658,9.47505664825,9e-08,0.0,0.0,0.0,9e-08,0.0,0.0,0.0,9e-08
1438351933661404262,132315,1438351933661404262,fcu,0.0,0.0,0.0,0.0,-1.0,0.0,0.0,0.0,0.0,0.0,0.0,0.0,0.0,-0.0142382485792,-0.0310621168464,0.00926468987018,1.21846967915e-07,0.0,0.0,0.0,1.21846967915e-07,0.0,0.0,0.0,1.21846967915e-07,-0.0520320944488,-1.43346703053,9.48344612122,9e-08,0.0,0.0,0.0,9e-08,0.0,0.0,0.0,9e-08
1438351933671488270,132316,1438351933671488270,fcu,0.0,0.0,0.0,0.0,-1.0,0.0,0.0,0.0,0.0,0.0,0.0,0.0,0.0,-0.0136170070618,-0.0310951378196,0.00881030410528,1.21846967915e-07,0.0,0.0,0.0,1.21846967915e-07,0.0,0.0,0.0,1.21846967915e-07,-0.047076292336,-1.43794500828,9.47981071472,9e-08,0.0,0.0,0.0,9e-08,0.0,0.0,0.0,9e-08
1438351933683626570,132317,1438351933683626570,fcu,0.0,0.0,0.0,0.0,-1.0,0.0,0.0,0.0,0.0,0.0,0.0,0.0,0.0,-0.0144409248605,-0.030870417133,0.00822418276221,1.21846967915e-07,0.0,0.0,0.0,1.21846967915e-07,0.0,0.0,0.0,1.21846967915e-07,-0.0361558273435,-1.42526817322,9.47677707672,9e-08,0.0,0.0,0.0,9e-08,0.0,0.0,0.0,9e-08
1438351933695639920,132318,1438351933695639920,fcu,0.0,0.0,0.0,0.0,-1.0,0.0,0.0,0.0,0.0,0.0,0.0,0.0,0.0,-0.0140127008781,-0.0305538699031,0.00875640101731,1.21846967915e-07,0.0,0.0,0.0,1.21846967915e-07,0.0,0.0,0.0,1.21846967915e-07,-0.0580921955407,-1.42619264126,9.4583158493,9e-08,0.0,0.0,0.0,9e-08,0.0,0.0,0.0,9e-08
1438351933705764738,132319,1438351933705764738,fcu,0.0,0.0,0.0,0.0,-1.0,0.0,0.0,0.0,0.0,0.0,0.0,0.0,0.0,-0.0138346739113,-0.0309667475522,0.00877909176052,1.21846967915e-07,0.0,0.0,0.0,1.21846967915e-07,0.0,0.0,0.0,1.21846967915e-07,-0.0690576508641,-1.42915070057,9.45877170563,9e-08,0.0,0.0,0.0,9e-08,0.0,0.0,0.0,9e-08
1438351933717712267,132320,1438351933717712267,fcu,0.0,0.0,0.0,0.0,-1.0,0.0,0.0,0.0,0.0,0.0,0.0,0.0,0.0,-0.0146941542625,-0.0313451960683,0.00928458292037,1.21846967915e-07,0.0,0.0,0.0,1.21846967915e-07,0.0,0.0,0.0,1.21846967915e-07,-0.0558023713529,-1.43467855453,9.44444942474,9e-08,0.0,0.0,0.0,9e-08,0.0,0.0,0.0,9e-08
1438351933727906274,132321,1438351933727906274,fcu,0.0,0.0,0.0,0.0,-1.0,0.0,0.0,0.0,0.0,0.0,0.0,0.0,0.0,-0.0147805521265,-0.0315934792161,0.0090160118416,1.21846967915e-07,0.0,0.0,0.0,1.21846967915e-07,0.0,0.0,0.0,1.21846967915e-07,-0.0632776767015,-1.43824160099,9.45741462708,9e-08,0.0,0.0,0.0,9e-08,0.0,0.0,0.0,9e-08
1438351933737916472,132322,1438351933737916472,fcu,0.0,0.0,0.0,0.0,-1.0,0.0,0.0,0.0,0.0,0.0,0.0,0.0,0.0,-0.0141084976494,-0.0309844054282,0.00871429033577,1.21846967915e-07,0.0,0.0,0.0,1.21846967915e-07,0.0,0.0,0.0,1.21846967915e-07,-0.0498856902122,-1.43574571609,9.48566627502,9e-08,0.0,0.0,0.0,9e-08,0.0,0.0,0.0,9e-08
1438351933750136670,132323,1438351933750136670,fcu,0.0,0.0,0.0,0.0,-1.0,0.0,0.0,0.0,0.0,0.0,0.0,0.0,0.0,-0.0132304709405,-0.0306684467942,0.00910688284785,1.21846967915e-07,0.0,0.0,0.0,1.21846967915e-07,0.0,0.0,0.0,1.21846967915e-07,-0.0466891042888,-1.43840050697,9.46289253235,9e-08,0.0,0.0,0.0,9e-08,0.0,0.0,0.0,9e-08
1438351933762060349,132324,1438351933762060349,fcu,0.0,0.0,0.0,0.0,-1.0,0.0,0.0,0.0,0.0,0.0,0.0,0.0,0.0,-0.0142810530961,-0.0307719185948,0.00941951666027,1.21846967915e-07,0.0,0.0,0.0,1.21846967915e-07,0.0,0.0,0.0,1.21846967915e-07,-0.06349144876,-1.44689643383,9.45345878601,9e-08,0.0,0.0,0.0,9e-08,0.0,0.0,0.0,9e-08
1438351933772288024,132325,1438351933772288024,fcu,0.0,0.0,0.0,0.0,-1.0,0.0,0.0,0.0,0.0,0.0,0.0,0.0,0.0,-0.0150103475899,-0.0304272677749,0.00891865510494,1.21846967915e-07,0.0,0.0,0.0,1.21846967915e-07,0.0,0.0,0.0,1.21846967915e-07,-0.0656544715166,-1.4366569519,9.46494960785,9e-08,0.0,0.0,0.0,9e-08,0.0,0.0,0.0,9e-08
1438351933784236971,132326,1438351933784236971,fcu,0.0,0.0,0.0,0.0,-1.0,0.0,0.0,0.0,0.0,0.0,0.0,0.0,0.0,-0.0141552761197,-0.0298870299011,0.00887583941221,1.21846967915e-07,0.0,0.0,0.0,1.21846967915e-07,0.0,0.0,0.0,1.21846967915e-07,-0.039310272783,-1.43190777302,9.47556781769,9e-08,0.0,0.0,0.0,9e-08,0.0,0.0,0.0,9e-08
1438351933794361342,132327,1438351933794361342,fcu,0.0,0.0,0.0,0.0,-1.0,0.0,0.0,0.0,0.0,0.0,0.0,0.0,0.0,-0.0133536634967,-0.0305985063314,0.00874584726989,1.21846967915e-07,0.0,0.0,0.0,1.21846967915e-07,0.0,0.0,0.0,1.21846967915e-07,-0.0399823561311,-1.42897987366,9.47384643555,9e-08,0.0,0.0,0.0,9e-08,0.0,0.0,0.0,9e-08
1438351933804355418,132328,1438351933804355418,fcu,0.0,0.0,0.0,0.0,-1.0,0.0,0.0,0.0,0.0,0.0,0.0,0.0,0.0,-0.0143243782222,-0.0312192682177,0.00830391980708,1.21846967915e-07,0.0,0.0,0.0,1.21846967915e-07,0.0,0.0,0.0,1.21846967915e-07,-0.0658313855529,-1.44019913673,9.46440696716,9e-08,0.0,0.0,0.0,9e-08,0.0,0.0,0.0,9e-08
1438351933814372135,132329,1438351933814372135,fcu,0.0,0.0,0.0,0.0,-1.0,0.0,0.0,0.0,0.0,0.0,0.0,0.0,0.0,-0.0145209338516,-0.0305482037365,0.00902370177209,1.21846967915e-07,0.0,0.0,0.0,1.21846967915e-07,0.0,0.0,0.0,1.21846967915e-07,-0.0715785399079,-1.44682848454,9.46590042114,9e-08,0.0,0.0,0.0,9e-08,0.0,0.0,0.0,9e-08
1438351933824494773,132330,1438351933824494773,fcu,0.0,0.0,0.0,0.0,-1.0,0.0,0.0,0.0,0.0,0.0,0.0,0.0,0.0,-0.0138018708676,-0.0306866522878,0.00923974718899,1.21846967915e-07,0.0,0.0,0.0,1.21846967915e-07,0.0,0.0,0.0,1.21846967915e-07,-0.0627472624183,-1.41945695877,9.46087646484,9e-08,0.0,0.0,0.0,9e-08,0.0,0.0,0.0,9e-08
1438351933834671706,132331,1438351933834671706,fcu,0.0,0.0,0.0,0.0,-1.0,0.0,0.0,0.0,0.0,0.0,0.0,0.0,0.0,-0.013541967608,-0.0317095629871,0.00848014187068,1.21846967915e-07,0.0,0.0,0.0,1.21846967915e-07,0.0,0.0,0.0,1.21846967915e-07,-0.0630973726511,-1.42840063572,9.47007846832,9e-08,0.0,0.0,0.0,9e-08,0.0,0.0,0.0,9e-08
1438351933844693199,132332,1438351933844693199,fcu,0.0,0.0,0.0,0.0,-1.0,0.0,0.0,0.0,0.0,0.0,0.0,0.0,0.0,-0.0143861370161,-0.0323218852282,0.00910463090986,1.21846967915e-07,0.0,0.0,0.0,1.21846967915e-07,0.0,0.0,0.0,1.21846967915e-07,-0.0536232255399,-1.43869662285,9.45798683167,9e-08,0.0,0.0,0.0,9e-08,0.0,0.0,0.0,9e-08
1438351933854693424,132333,1438351933854693424,fcu,0.0,0.0,0.0,0.0,-1.0,0.0,0.0,0.0,0.0,0.0,0.0,0.0,0.0,-0.014141744934,-0.0302812233567,0.00916777085513,1.21846967915e-07,0.0,0.0,0.0,1.21846967915e-07,0.0,0.0,0.0,1.21846967915e-07,-0.0456233769655,-1.43256008625,9.47664356232,9e-08,0.0,0.0,0.0,9e-08,0.0,0.0,0.0,9e-08
1438351933864859602,132334,1438351933864859602,fcu,0.0,0.0,0.0,0.0,-1.0,0.0,0.0,0.0,0.0,0.0,0.0,0.0,0.0,-0.0151330213994,-0.0300707705319,0.00974864698946,1.21846967915e-07,0.0,0.0,0.0,1.21846967915e-07,0.0,0.0,0.0,1.21846967915e-07,-0.0527110137045,-1.4372998476,9.48575019836,9e-08,0.0,0.0,0.0,9e-08,0.0,0.0,0.0,9e-08
1438351933874857632,132335,1438351933874857632,fcu,0.0,0.0,0.0,0.0,-1.0,0.0,0.0,0.0,0.0,0.0,0.0,0.0,0.0,-0.0143697252497,-0.0305389184505,0.00975386518985,1.21846967915e-07,0.0,0.0,0.0,1.21846967915e-07,0.0,0.0,0.0,1.21846967915e-07,-0.06233535707,-1.42263460159,9.47483634949,9e-08,0.0,0.0,0.0,9e-08,0.0,0.0,0.0,9e-08
1438351933885016598,132336,1438351933885016598,fcu,0.0,0.0,0.0,0.0,-1.0,0.0,0.0,0.0,0.0,0.0,0.0,0.0,0.0,-0.0144713958725,-0.0302734859288,0.00974216405302,1.21846967915e-07,0.0,0.0,0.0,1.21846967915e-07,0.0,0.0,0.0,1.21846967915e-07,-0.0518456809223,-1.42367827892,9.45587444305,9e-08,0.0,0.0,0.0,9e-08,0.0,0.0,0.0,9e-08
1438351933895162244,132337,1438351933895162244,fcu,0.0,0.0,0.0,0.0,-1.0,0.0,0.0,0.0,0.0,0.0,0.0,0.0,0.0,-0.014398990199,-0.0301327351481,0.00884073786438,1.21846967915e-07,0.0,0.0,0.0,1.21846967915e-07,0.0,0.0,0.0,1.21846967915e-07,-0.0573603622615,-1.43594574928,9.4663028717,9e-08,0.0,0.0,0.0,9e-08,0.0,0.0,0.0,9e-08
1438351933905194753,132338,1438351933905194753,fcu,0.0,0.0,0.0,0.0,-1.0,0.0,0.0,0.0,0.0,0.0,0.0,0.0,0.0,-0.0141688063741,-0.0302246343344,0.00815462507308,1.21846967915e-07,0.0,0.0,0.0,1.21846967915e-07,0.0,0.0,0.0,1.21846967915e-07,-0.0545611009002,-1.43236100674,9.47396659851,9e-08,0.0,0.0,0.0,9e-08,0.0,0.0,0.0,9e-08
1438351933917199769,132339,1438351933917199769,fcu,0.0,0.0,0.0,0.0,-1.0,0.0,0.0,0.0,0.0,0.0,0.0,0.0,0.0,-0.0144314849749,-0.0309987217188,0.00890334602445,1.21846967915e-07,0.0,0.0,0.0,1.21846967915e-07,0.0,0.0,0.0,1.21846967915e-07,-0.0431844294071,-1.43545889854,9.47141361237,9e-08,0.0,0.0,0.0,9e-08,0.0,0.0,0.0,9e-08
1438351933927415311,132340,1438351933927415311,fcu,0.0,0.0,0.0,0.0,-1.0,0.0,0.0,0.0,0.0,0.0,0.0,0.0,0.0,-0.0151984747499,-0.0316312164068,0.00944431871176,1.21846967915e-07,0.0,0.0,0.0,1.21846967915e-07,0.0,0.0,0.0,1.21846967915e-07,-0.0383432768285,-1.44002485275,9.49223995209,9e-08,0.0,0.0,0.0,9e-08,0.0,0.0,0.0,9e-08
1438351933937352440,132341,1438351933937352440,fcu,0.0,0.0,0.0,0.0,-1.0,0.0,0.0,0.0,0.0,0.0,0.0,0.0,0.0,-0.0149923916906,-0.0308923926204,0.00959879625589,1.21846967915e-07,0.0,0.0,0.0,1.21846967915e-07,0.0,0.0,0.0,1.21846967915e-07,-0.0529870763421,-1.42967057228,9.48645210266,9e-08,0.0,0.0,0.0,9e-08,0.0,0.0,0.0,9e-08
1438351933947510379,132342,1438351933947510379,fcu,0.0,0.0,0.0,0.0,-1.0,0.0,0.0,0.0,0.0,0.0,0.0,0.0,0.0,-0.0149596715346,-0.0307003688067,0.0106210913509,1.21846967915e-07,0.0,0.0,0.0,1.21846967915e-07,0.0,0.0,0.0,1.21846967915e-07,-0.0614018291235,-1.43802213669,9.4383020401,9e-08,0.0,0.0,0.0,9e-08,0.0,0.0,0.0,9e-08
1438351933957445228,132343,1438351933957445228,fcu,0.0,0.0,0.0,0.0,-1.0,0.0,0.0,0.0,0.0,0.0,0.0,0.0,0.0,-0.0144319059327,-0.0309767927974,0.00899251364172,1.21846967915e-07,0.0,0.0,0.0,1.21846967915e-07,0.0,0.0,0.0,1.21846967915e-07,-0.0536215826869,-1.43649673462,9.43629360199,9e-08,0.0,0.0,0.0,9e-08,0.0,0.0,0.0,9e-08
1438351933967580093,132344,1438351933967580093,fcu,0.0,0.0,0.0,0.0,-1.0,0.0,0.0,0.0,0.0,0.0,0.0,0.0,0.0,-0.0147242667153,-0.0306277908385,0.00854621641338,1.21846967915e-07,0.0,0.0,0.0,1.21846967915e-07,0.0,0.0,0.0,1.21846967915e-07,-0.0462588220835,-1.44124293327,9.47859573364,9e-08,0.0,0.0,0.0,9e-08,0.0,0.0,0.0,9e-08
1438351933977706409,132345,1438351933977706409,fcu,0.0,0.0,0.0,0.0,-1.0,0.0,0.0,0.0,0.0,0.0,0.0,0.0,0.0,-0.014788848348,-0.0302286949009,0.00817807950079,1.21846967915e-07,0.0,0.0,0.0,1.21846967915e-07,0.0,0.0,0.0,1.21846967915e-07,-0.0503722392023,-1.44145810604,9.47401618958,9e-08,0.0,0.0,0.0,9e-08,0.0,0.0,0.0,9e-08
1438351933987618901,132346,1438351933987618901,fcu,0.0,0.0,0.0,0.0,-1.0,0.0,0.0,0.0,0.0,0.0,0.0,0.0,0.0,-0.0131918545812,-0.0308072604239,0.00866934470832,1.21846967915e-07,0.0,0.0,0.0,1.21846967915e-07,0.0,0.0,0.0,1.21846967915e-07,-0.0610587075353,-1.4328482151,9.49244594574,9e-08,0.0,0.0,0.0,9e-08,0.0,0.0,0.0,9e-08
1438351933997998673,132347,1438351933997998673,fcu,0.0,0.0,0.0,0.0,-1.0,0.0,0.0,0.0,0.0,0.0,0.0,0.0,0.0,-0.0138551509008,-0.0302785038948,0.00930519308895,1.21846967915e-07,0.0,0.0,0.0,1.21846967915e-07,0.0,0.0,0.0,1.21846967915e-07,-0.0522596202791,-1.42516338825,9.47679805756,9e-08,0.0,0.0,0.0,9e-08,0.0,0.0,0.0,9e-08
1438351934009925043,132348,1438351934009925043,fcu,0.0,0.0,0.0,0.0,-1.0,0.0,0.0,0.0,0.0,0.0,0.0,0.0,0.0,-0.0139402160421,-0.0309532247484,0.00839128252119,1.21846967915e-07,0.0,0.0,0.0,1.21846967915e-07,0.0,0.0,0.0,1.21846967915e-07,-0.0434738248587,-1.42906320095,9.47833919525,9e-08,0.0,0.0,0.0,9e-08,0.0,0.0,0.0,9e-08
1438351934021965366,132349,1438351934021965366,fcu,0.0,0.0,0.0,0.0,-1.0,0.0,0.0,0.0,0.0,0.0,0.0,0.0,0.0,-0.0137441726401,-0.0299834851176,0.00922628864646,1.21846967915e-07,0.0,0.0,0.0,1.21846967915e-07,0.0,0.0,0.0,1.21846967915e-07,-0.0518905371428,-1.44127237797,9.4690952301,9e-08,0.0,0.0,0.0,9e-08,0.0,0.0,0.0,9e-08
1438351934033981789,132350,1438351934033981789,fcu,0.0,0.0,0.0,0.0,-1.0,0.0,0.0,0.0,0.0,0.0,0.0,0.0,0.0,-0.0152602046728,-0.0302195325494,0.0100461142138,1.21846967915e-07,0.0,0.0,0.0,1.21846967915e-07,0.0,0.0,0.0,1.21846967915e-07,-0.0609417818487,-1.40809512138,9.47170162201,9e-08,0.0,0.0,0.0,9e-08,0.0,0.0,0.0,9e-08
1438351934044172974,132351,1438351934044172974,fcu,0.0,0.0,0.0,0.0,-1.0,0.0,0.0,0.0,0.0,0.0,0.0,0.0,0.0,-0.0153707200661,-0.0308761578053,0.0096649331972,1.21846967915e-07,0.0,0.0,0.0,1.21846967915e-07,0.0,0.0,0.0,1.21846967915e-07,-0.0578699223697,-1.41026568413,9.46015739441,9e-08,0.0,0.0,0.0,9e-08,0.0,0.0,0.0,9e-08
1438351934054143064,132352,1438351934054143064,fcu,0.0,0.0,0.0,0.0,-1.0,0.0,0.0,0.0,0.0,0.0,0.0,0.0,0.0,-0.0141486125067,-0.031319681555,0.0104118613526,1.21846967915e-07,0.0,0.0,0.0,1.21846967915e-07,0.0,0.0,0.0,1.21846967915e-07,-0.0439772941172,-1.42669713497,9.47243690491,9e-08,0.0,0.0,0.0,9e-08,0.0,0.0,0.0,9e-08
1438351934064330837,132353,1438351934064330837,fcu,0.0,0.0,0.0,0.0,-1.0,0.0,0.0,0.0,0.0,0.0,0.0,0.0,0.0,-0.0129614947364,-0.0307945031673,0.0107369264588,1.21846967915e-07,0.0,0.0,0.0,1.21846967915e-07,0.0,0.0,0.0,1.21846967915e-07,-0.0459503978491,-1.42613434792,9.48054409027,9e-08,0.0,0.0,0.0,9e-08,0.0,0.0,0.0,9e-08
1438351934076367116,132354,1438351934076367116,fcu,0.0,0.0,0.0,0.0,-1.0,0.0,0.0,0.0,0.0,0.0,0.0,0.0,0.0,-0.0134076112881,-0.0303467195481,0.00929277949035,1.21846967915e-07,0.0,0.0,0.0,1.21846967915e-07,0.0,0.0,0.0,1.21846967915e-07,-0.0547300390899,-1.45047461987,9.48988342285,9e-08,0.0,0.0,0.0,9e-08,0.0,0.0,0.0,9e-08
1438351934086397851,132355,1438351934086397851,fcu,0.0,0.0,0.0,0.0,-1.0,0.0,0.0,0.0,0.0,0.0,0.0,0.0,0.0,-0.0136469453573,-0.0301565825939,0.0094356732443,1.21846967915e-07,0.0,0.0,0.0,1.21846967915e-07,0.0,0.0,0.0,1.21846967915e-07,-0.0526034832001,-1.45604729652,9.49062538147,9e-08,0.0,0.0,0.0,9e-08,0.0,0.0,0.0,9e-08
1438351934096480376,132356,1438351934096480376,fcu,0.0,0.0,0.0,0.0,-1.0,0.0,0.0,0.0,0.0,0.0,0.0,0.0,0.0,-0.0135714840144,-0.029900059104,0.0087190438062,1.21846967915e-07,0.0,0.0,0.0,1.21846967915e-07,0.0,0.0,0.0,1.21846967915e-07,-0.0404877625406,-1.44051921368,9.46727657318,9e-08,0.0,0.0,0.0,9e-08,0.0,0.0,0.0,9e-08
1438351934106667843,132357,1438351934106667843,fcu,0.0,0.0,0.0,0.0,-1.0,0.0,0.0,0.0,0.0,0.0,0.0,0.0,0.0,-0.0140096042305,-0.0305477380753,0.00884786341339,1.21846967915e-07,0.0,0.0,0.0,1.21846967915e-07,0.0,0.0,0.0,1.21846967915e-07,-0.0342101976275,-1.43921089172,9.48531627655,9e-08,0.0,0.0,0.0,9e-08,0.0,0.0,0.0,9e-08
1438351934118727070,132358,1438351934118727070,fcu,0.0,0.0,0.0,0.0,-1.0,0.0,0.0,0.0,0.0,0.0,0.0,0.0,0.0,-0.014348750934,-0.0306519418955,0.00900855939835,1.21846967915e-07,0.0,0.0,0.0,1.21846967915e-07,0.0,0.0,0.0,1.21846967915e-07,-0.0368579179049,-1.43613779545,9.47067928314,9e-08,0.0,0.0,0.0,9e-08,0.0,0.0,0.0,9e-08
1438351934130755821,132359,1438351934130755821,fcu,0.0,0.0,0.0,0.0,-1.0,0.0,0.0,0.0,0.0,0.0,0.0,0.0,0.0,-0.0147221852094,-0.0299299769104,0.00912892725319,1.21846967915e-07,0.0,0.0,0.0,1.21846967915e-07,0.0,0.0,0.0,1.21846967915e-07,-0.0462531559169,-1.42310357094,9.45180511475,9e-08,0.0,0.0,0.0,9e-08,0.0,0.0,0.0,9e-08
1438351934140792089,132360,1438351934140792089,fcu,0.0,0.0,0.0,0.0,-1.0,0.0,0.0,0.0,0.0,0.0,0.0,0.0,0.0,-0.01416344475,-0.0300624389201,0.00901446584612,1.21846967915e-07,0.0,0.0,0.0,1.21846967915e-07,0.0,0.0,0.0,1.21846967915e-07,-0.0422170497477,-1.42883682251,9.47352409363,9e-08,0.0,0.0,0.0,9e-08,0.0,0.0,0.0,9e-08
1438351934150833068,132361,1438351934150833068,fcu,0.0,0.0,0.0,0.0,-1.0,0.0,0.0,0.0,0.0,0.0,0.0,0.0,0.0,-0.0139815062284,-0.0306722298265,0.00906629301608,1.21846967915e-07,0.0,0.0,0.0,1.21846967915e-07,0.0,0.0,0.0,1.21846967915e-07,-0.047193557024,-1.41105639935,9.46634960175,9e-08,0.0,0.0,0.0,9e-08,0.0,0.0,0.0,9e-08
1438351934160962857,132362,1438351934160962857,fcu,0.0,0.0,0.0,0.0,-1.0,0.0,0.0,0.0,0.0,0.0,0.0,0.0,0.0,-0.01378862001,-0.0306070055813,0.00813784636557,1.21846967915e-07,0.0,0.0,0.0,1.21846967915e-07,0.0,0.0,0.0,1.21846967915e-07,-0.0527652837336,-1.42035031319,9.46366214752,9e-08,0.0,0.0,0.0,9e-08,0.0,0.0,0.0,9e-08
1438351934171169869,132363,1438351934171169869,fcu,0.0,0.0,0.0,0.0,-1.0,0.0,0.0,0.0,0.0,0.0,0.0,0.0,0.0,-0.0140584027395,-0.0313650481403,0.00844890344888,1.21846967915e-07,0.0,0.0,0.0,1.21846967915e-07,0.0,0.0,0.0,1.21846967915e-07,-0.054984383285,-1.41917014122,9.45945835114,9e-08,0.0,0.0,0.0,9e-08,0.0,0.0,0.0,9e-08
1438351934183043562,132364,1438351934183043562,fcu,0.0,0.0,0.0,0.0,-1.0,0.0,0.0,0.0,0.0,0.0,0.0,0.0,0.0,-0.0147815169767,-0.0311280656606,0.00907908193767,1.21846967915e-07,0.0,0.0,0.0,1.21846967915e-07,0.0,0.0,0.0,1.21846967915e-07,-0.0612150430679,-1.42711544037,9.45353794098,9e-08,0.0,0.0,0.0,9e-08,0.0,0.0,0.0,9e-08
1438351934193239629,132365,1438351934193239629,fcu,0.0,0.0,0.0,0.0,-1.0,0.0,0.0,0.0,0.0,0.0,0.0,0.0,0.0,-0.0147678395733,-0.0306607596576,0.00903943367302,1.21846967915e-07,0.0,0.0,0.0,1.21846967915e-07,0.0,0.0,0.0,1.21846967915e-07,-0.0551138706505,-1.43730461597,9.46343326569,9e-08,0.0,0.0,0.0,9e-08,0.0,0.0,0.0,9e-08
1438351934205299412,132366,1438351934205299412,fcu,0.0,0.0,0.0,0.0,-1.0,0.0,0.0,0.0,0.0,0.0,0.0,0.0,0.0,-0.0141457794234,-0.0295827426016,0.00787053536624,1.21846967915e-07,0.0,0.0,0.0,1.21846967915e-07,0.0,0.0,0.0,1.21846967915e-07,-0.0442703999579,-1.43729817867,9.47187328339,9e-08,0.0,0.0,0.0,9e-08,0.0,0.0,0.0,9e-08
1438351934215489115,132367,1438351934215489115,fcu,0.0,0.0,0.0,0.0,-1.0,0.0,0.0,0.0,0.0,0.0,0.0,0.0,0.0,-0.0137407956645,-0.0301373247057,0.00759076559916,1.21846967915e-07,0.0,0.0,0.0,1.21846967915e-07,0.0,0.0,0.0,1.21846967915e-07,-0.0458544939756,-1.44217145443,9.46754932404,9e-08,0.0,0.0,0.0,9e-08,0.0,0.0,0.0,9e-08
1438351934227491681,132368,1438351934227491681,fcu,0.0,0.0,0.0,0.0,-1.0,0.0,0.0,0.0,0.0,0.0,0.0,0.0,0.0,-0.0140760904178,-0.0300847087055,0.00847011432052,1.21846967915e-07,0.0,0.0,0.0,1.21846967915e-07,0.0,0.0,0.0,1.21846967915e-07,-0.055565237999,-1.445114851,9.4338388443,9e-08,0.0,0.0,0.0,9e-08,0.0,0.0,0.0,9e-08
1438351934237480770,132369,1438351934237480770,fcu,0.0,0.0,0.0,0.0,-1.0,0.0,0.0,0.0,0.0,0.0,0.0,0.0,0.0,-0.01444916334,-0.0300232246518,0.00932011473924,1.21846967915e-07,0.0,0.0,0.0,1.21846967915e-07,0.0,0.0,0.0,1.21846967915e-07,-0.0632938817143,-1.44485044479,9.45123291016,9e-08,0.0,0.0,0.0,9e-08,0.0,0.0,0.0,9e-08
1438351934249513239,132370,1438351934249513239,fcu,0.0,0.0,0.0,0.0,-1.0,0.0,0.0,0.0,0.0,0.0,0.0,0.0,0.0,-0.0139504196122,-0.0308799054474,0.0100753512233,1.21846967915e-07,0.0,0.0,0.0,1.21846967915e-07,0.0,0.0,0.0,1.21846967915e-07,-0.0559782423079,-1.42739224434,9.49473190308,9e-08,0.0,0.0,0.0,9e-08,0.0,0.0,0.0,9e-08
1438351934259661997,132371,1438351934259661997,fcu,0.0,0.0,0.0,0.0,-1.0,0.0,0.0,0.0,0.0,0.0,0.0,0.0,0.0,-0.0140799647197,-0.0314584076405,0.00876116659492,1.21846967915e-07,0.0,0.0,0.0,1.21846967915e-07,0.0,0.0,0.0,1.21846967915e-07,-0.0570045821369,-1.42365801334,9.46035861969,9e-08,0.0,0.0,0.0,9e-08,0.0,0.0,0.0,9e-08
1438351934271637886,132372,1438351934271637886,fcu,0.0,0.0,0.0,0.0,-1.0,0.0,0.0,0.0,0.0,0.0,0.0,0.0,0.0,-0.0143654160202,-0.0310914013535,0.00833326298743,1.21846967915e-07,0.0,0.0,0.0,1.21846967915e-07,0.0,0.0,0.0,1.21846967915e-07,-0.0591315887868,-1.42439079285,9.44703006744,9e-08,0.0,0.0,0.0,9e-08,0.0,0.0,0.0,9e-08
1438351934281904988,132373,1438351934281904988,fcu,0.0,0.0,0.0,0.0,-1.0,0.0,0.0,0.0,0.0,0.0,0.0,0.0,0.0,-0.0148084471002,-0.0313080884516,0.00860003940761,1.21846967915e-07,0.0,0.0,0.0,1.21846967915e-07,0.0,0.0,0.0,1.21846967915e-07,-0.0539960563183,-1.43062102795,9.44513320923,9e-08,0.0,0.0,0.0,9e-08,0.0,0.0,0.0,9e-08
1438351934293929604,132374,1438351934293929604,fcu,0.0,0.0,0.0,0.0,-1.0,0.0,0.0,0.0,0.0,0.0,0.0,0.0,0.0,-0.0131151964888,-0.0315656550229,0.00888943113387,1.21846967915e-07,0.0,0.0,0.0,1.21846967915e-07,0.0,0.0,0.0,1.21846967915e-07,-0.0485950671136,-1.42653512955,9.45634841919,9e-08,0.0,0.0,0.0,9e-08,0.0,0.0,0.0,9e-08
1438351934303977033,132375,1438351934303977033,fcu,0.0,0.0,0.0,0.0,-1.0,0.0,0.0,0.0,0.0,0.0,0.0,0.0,0.0,-0.0138058820739,-0.0311443209648,0.00918398145586,1.21846967915e-07,0.0,0.0,0.0,1.21846967915e-07,0.0,0.0,0.0,1.21846967915e-07,-0.0569279007614,-1.43156647682,9.47313785553,9e-08,0.0,0.0,0.0,9e-08,0.0,0.0,0.0,9e-08
1438351934316148544,132376,1438351934316148544,fcu,0.0,0.0,0.0,0.0,-1.0,0.0,0.0,0.0,0.0,0.0,0.0,0.0,0.0,-0.0144724426791,-0.0308489240706,0.008703911677,1.21846967915e-07,0.0,0.0,0.0,1.21846967915e-07,0.0,0.0,0.0,1.21846967915e-07,-0.046161994338,-1.43817937374,9.44756031036,9e-08,0.0,0.0,0.0,9e-08,0.0,0.0,0.0,9e-08
1438351934326200027,132377,1438351934326200027,fcu,0.0,0.0,0.0,0.0,-1.0,0.0,0.0,0.0,0.0,0.0,0.0,0.0,0.0,-0.0141733055934,-0.0311536490917,0.0091473357752,1.21846967915e-07,0.0,0.0,0.0,1.21846967915e-07,0.0,0.0,0.0,1.21846967915e-07,-0.0374817028642,-1.42786705494,9.43947029114,9e-08,0.0,0.0,0.0,9e-08,0.0,0.0,0.0,9e-08
1438351934338198499,132378,1438351934338198499,fcu,0.0,0.0,0.0,0.0,-1.0,0.0,0.0,0.0,0.0,0.0,0.0,0.0,0.0,-0.0144090689719,-0.0310247018933,0.00786981359124,1.21846967915e-07,0.0,0.0,0.0,1.21846967915e-07,0.0,0.0,0.0,1.21846967915e-07,-0.0233002342284,-1.42206907272,9.48647022247,9e-08,0.0,0.0,0.0,9e-08,0.0,0.0,0.0,9e-08
1438351934348471433,132379,1438351934348471433,fcu,0.0,0.0,0.0,0.0,-1.0,0.0,0.0,0.0,0.0,0.0,0.0,0.0,0.0,-0.0140746757388,-0.0316394120455,0.00782327447087,1.21846967915e-07,0.0,0.0,0.0,1.21846967915e-07,0.0,0.0,0.0,1.21846967915e-07,-0.0385047197342,-1.42950117588,9.50051021576,9e-08,0.0,0.0,0.0,9e-08,0.0,0.0,0.0,9e-08
1438351934360354057,132380,1438351934360354057,fcu,0.0,0.0,0.0,0.0,-1.0,0.0,0.0,0.0,0.0,0.0,0.0,0.0,0.0,-0.0138400867581,-0.0318073183298,0.00928799714893,1.21846967915e-07,0.0,0.0,0.0,1.21846967915e-07,0.0,0.0,0.0,1.21846967915e-07,-0.049862023443,-1.41906225681,9.48999214172,9e-08,0.0,0.0,0.0,9e-08,0.0,0.0,0.0,9e-08
1438351934370490040,132381,1438351934370490040,fcu,0.0,0.0,0.0,0.0,-1.0,0.0,0.0,0.0,0.0,0.0,0.0,0.0,0.0,-0.014172848314,-0.0321076475084,0.00893423799425,1.21846967915e-07,0.0,0.0,0.0,1.21846967915e-07,0.0,0.0,0.0,1.21846967915e-07,-0.068512648344,-1.42299079895,9.46667194366,9e-08,0.0,0.0,0.0,9e-08,0.0,0.0,0.0,9e-08
1438351934382491614,132382,1438351934382491614,fcu,0.0,0.0,0.0,0.0,-1.0,0.0,0.0,0.0,0.0,0.0,0.0,0.0,0.0,-0.0140477018431,-0.0310254972428,0.00843108817935,1.21846967915e-07,0.0,0.0,0.0,1.21846967915e-07,0.0,0.0,0.0,1.21846967915e-07,-0.052095990628,-1.43602633476,9.4706659317,9e-08,0.0,0.0,0.0,9e-08,0.0,0.0,0.0,9e-08
1438351934392646015,132383,1438351934392646015,fcu,0.0,0.0,0.0,0.0,-1.0,0.0,0.0,0.0,0.0,0.0,0.0,0.0,0.0,-0.0135030727834,-0.0308788586408,0.00971440970898,1.21846967915e-07,0.0,0.0,0.0,1.21846967915e-07,0.0,0.0,0.0,1.21846967915e-07,-0.0351846553385,-1.42500281334,9.48351478577,9e-08,0.0,0.0,0.0,9e-08,0.0,0.0,0.0,9e-08
1438351934402647562,132384,1438351934402647562,fcu,0.0,0.0,0.0,0.0,-1.0,0.0,0.0,0.0,0.0,0.0,0.0,0.0,0.0,-0.0139208724722,-0.0314510092139,0.00928088091314,1.21846967915e-07,0.0,0.0,0.0,1.21846967915e-07,0.0,0.0,0.0,1.21846967915e-07,-0.0441272147,-1.42441546917,9.47602367401,9e-08,0.0,0.0,0.0,9e-08,0.0,0.0,0.0,9e-08
1438351934414980647,132385,1438351934414980647,fcu,0.0,0.0,0.0,0.0,-1.0,0.0,0.0,0.0,0.0,0.0,0.0,0.0,0.0,-0.0143913654611,-0.0310250204057,0.00974133983254,1.21846967915e-07,0.0,0.0,0.0,1.21846967915e-07,0.0,0.0,0.0,1.21846967915e-07,-0.0484695024788,-1.40371978283,9.47350311279,9e-08,0.0,0.0,0.0,9e-08,0.0,0.0,0.0,9e-08
1438351934426913727,132386,1438351934426913727,fcu,0.0,0.0,0.0,0.0,-1.0,0.0,0.0,0.0,0.0,0.0,0.0,0.0,0.0,-0.014125302434,-0.0308286696672,0.00872567202896,1.21846967915e-07,0.0,0.0,0.0,1.21846967915e-07,0.0,0.0,0.0,1.21846967915e-07,-0.0557911768556,-1.4240128994,9.44980144501,9e-08,0.0,0.0,0.0,9e-08,0.0,0.0,0.0,9e-08
1438351934437158276,132387,1438351934437158276,fcu,0.0,0.0,0.0,0.0,-1.0,0.0,0.0,0.0,0.0,0.0,0.0,0.0,0.0,-0.0138061586767,-0.0306715313345,0.00896720215678,1.21846967915e-07,0.0,0.0,0.0,1.21846967915e-07,0.0,0.0,0.0,1.21846967915e-07,-0.0533643290401,-1.43532681465,9.43480587006,9e-08,0.0,0.0,0.0,9e-08,0.0,0.0,0.0,9e-08
1438351934448966633,132388,1438351934448966633,fcu,0.0,0.0,0.0,0.0,-1.0,0.0,0.0,0.0,0.0,0.0,0.0,0.0,0.0,-0.0142107019201,-0.0303818378597,0.00862107891589,1.21846967915e-07,0.0,0.0,0.0,1.21846967915e-07,0.0,0.0,0.0,1.21846967915e-07,-0.0394967310131,-1.43650984764,9.46690654755,9e-08,0.0,0.0,0.0,9e-08,0.0,0.0,0.0,9e-08
1438351934459250163,132389,1438351934459250163,fcu,0.0,0.0,0.0,0.0,-1.0,0.0,0.0,0.0,0.0,0.0,0.0,0.0,0.0,-0.0143849868327,-0.0312847942114,0.00908036902547,1.21846967915e-07,0.0,0.0,0.0,1.21846967915e-07,0.0,0.0,0.0,1.21846967915e-07,-0.0380777865648,-1.42328476906,9.47889995575,9e-08,0.0,0.0,0.0,9e-08,0.0,0.0,0.0,9e-08
1438351934471066684,132390,1438351934471066684,fcu,0.0,0.0,0.0,0.0,-1.0,0.0,0.0,0.0,0.0,0.0,0.0,0.0,0.0,-0.0145000871271,-0.0302737113088,0.00819124653935,1.21846967915e-07,0.0,0.0,0.0,1.21846967915e-07,0.0,0.0,0.0,1.21846967915e-07,-0.0714396759868,-1.44052624702,9.48724937439,9e-08,0.0,0.0,0.0,9e-08,0.0,0.0,0.0,9e-08
1438351934481314580,132391,1438351934481314580,fcu,0.0,0.0,0.0,0.0,-1.0,0.0,0.0,0.0,0.0,0.0,0.0,0.0,0.0,-0.0143554899842,-0.0305691938847,0.00830798223615,1.21846967915e-07,0.0,0.0,0.0,1.21846967915e-07,0.0,0.0,0.0,1.21846967915e-07,-0.0642398446798,-1.43710756302,9.48606586456,9e-08,0.0,0.0,0.0,9e-08,0.0,0.0,0.0,9e-08
1438351934493288350,132392,1438351934493288350,fcu,0.0,0.0,0.0,0.0,-1.0,0.0,0.0,0.0,0.0,0.0,0.0,0.0,0.0,-0.0137111190706,-0.0312699861825,0.00945655349642,1.21846967915e-07,0.0,0.0,0.0,1.21846967915e-07,0.0,0.0,0.0,1.21846967915e-07,-0.0663412064314,-1.43648862839,9.4810590744,9e-08,0.0,0.0,0.0,9e-08,0.0,0.0,0.0,9e-08
1438351934503484061,132393,1438351934503484061,fcu,0.0,0.0,0.0,0.0,-1.0,0.0,0.0,0.0,0.0,0.0,0.0,0.0,0.0,-0.0141852553934,-0.0302095524967,0.0097322370857,1.21846967915e-07,0.0,0.0,0.0,1.21846967915e-07,0.0,0.0,0.0,1.21846967915e-07,-0.0560431927443,-1.42233681679,9.44037055969,9e-08,0.0,0.0,0.0,9e-08,0.0,0.0,0.0,9e-08
1438351934515468440,132394,1438351934515468440,fcu,0.0,0.0,0.0,0.0,-1.0,0.0,0.0,0.0,0.0,0.0,0.0,0.0,0.0,-0.0139354681596,-0.0309100542217,0.0086067551747,1.21846967915e-07,0.0,0.0,0.0,1.21846967915e-07,0.0,0.0,0.0,1.21846967915e-07,-0.0551848076284,-1.44246673584,9.46834754944,9e-08,0.0,0.0,0.0,9e-08,0.0,0.0,0.0,9e-08
1438351934525799389,132395,1438351934525799389,fcu,0.0,0.0,0.0,0.0,-1.0,0.0,0.0,0.0,0.0,0.0,0.0,0.0,0.0,-0.0142342019826,-0.0316468141973,0.00881869811565,1.21846967915e-07,0.0,0.0,0.0,1.21846967915e-07,0.0,0.0,0.0,1.21846967915e-07,-0.0515124127269,-1.44752144814,9.47531986237,9e-08,0.0,0.0,0.0,9e-08,0.0,0.0,0.0,9e-08
1438351934537568861,132396,1438351934537568861,fcu,0.0,0.0,0.0,0.0,-1.0,0.0,0.0,0.0,0.0,0.0,0.0,0.0,0.0,-0.0150803476572,-0.0308832284063,0.00886753667146,1.21846967915e-07,0.0,0.0,0.0,1.21846967915e-07,0.0,0.0,0.0,1.21846967915e-07,-0.0515043735504,-1.4343804121,9.47726726532,9e-08,0.0,0.0,0.0,9e-08,0.0,0.0,0.0,9e-08
1438351934547781827,132397,1438351934547781827,fcu,0.0,0.0,0.0,0.0,-1.0,0.0,0.0,0.0,0.0,0.0,0.0,0.0,0.0,-0.0146280815825,-0.0309346802533,0.00759088480845,1.21846967915e-07,0.0,0.0,0.0,1.21846967915e-07,0.0,0.0,0.0,1.21846967915e-07,-0.0506327711046,-1.42599713802,9.47734546661,9e-08,0.0,0.0,0.0,9e-08,0.0,0.0,0.0,9e-08
1438351934559840457,132398,1438351934559840457,fcu,0.0,0.0,0.0,0.0,-1.0,0.0,0.0,0.0,0.0,0.0,0.0,0.0,0.0,-0.014201101847,-0.0310778692365,0.00822227913886,1.21846967915e-07,0.0,0.0,0.0,1.21846967915e-07,0.0,0.0,0.0,1.21846967915e-07,-0.062039334327,-1.42176961899,9.45651245117,9e-08,0.0,0.0,0.0,9e-08,0.0,0.0,0.0,9e-08
1438351934569929923,132399,1438351934569929923,fcu,0.0,0.0,0.0,0.0,-1.0,0.0,0.0,0.0,0.0,0.0,0.0,0.0,0.0,-0.0138305118307,-0.0304674711078,0.00880808848888,1.21846967915e-07,0.0,0.0,0.0,1.21846967915e-07,0.0,0.0,0.0,1.21846967915e-07,-0.046866632998,-1.42619562149,9.45135498047,9e-08,0.0,0.0,0.0,9e-08,0.0,0.0,0.0,9e-08
1438351934581878524,132400,1438351934581878524,fcu,0.0,0.0,0.0,0.0,-1.0,0.0,0.0,0.0,0.0,0.0,0.0,0.0,0.0,-0.0138048697263,-0.0315540656447,0.00828387960792,1.21846967915e-07,0.0,0.0,0.0,1.21846967915e-07,0.0,0.0,0.0,1.21846967915e-07,-0.0384409949183,-1.44401025772,9.47438526154,9e-08,0.0,0.0,0.0,9e-08,0.0,0.0,0.0,9e-08
1438351934592162505,132401,1438351934592162505,fcu,0.0,0.0,0.0,0.0,-1.0,0.0,0.0,0.0,0.0,0.0,0.0,0.0,0.0,-0.0133286900818,-0.0311514995992,0.00769476732239,1.21846967915e-07,0.0,0.0,0.0,1.21846967915e-07,0.0,0.0,0.0,1.21846967915e-07,-0.0457293502986,-1.44326460361,9.47493267059,9e-08,0.0,0.0,0.0,9e-08,0.0,0.0,0.0,9e-08
1438351934602168167,132402,1438351934602168167,fcu,0.0,0.0,0.0,0.0,-1.0,0.0,0.0,0.0,0.0,0.0,0.0,0.0,0.0,-0.0133133353665,-0.0306464321911,0.00733795575798,1.21846967915e-07,0.0,0.0,0.0,1.21846967915e-07,0.0,0.0,0.0,1.21846967915e-07,-0.063977740705,-1.42913258076,9.48163223267,9e-08,0.0,0.0,0.0,9e-08,0.0,0.0,0.0,9e-08
